System.Time_Stamp,vtti.timestamp,FOT_Control.Speed,Head_Unit.Longitude,Head_Unit.Latitude,Head_Unit.MSL_Altitude,IMU.Gyro_X,IMU.Gyro_Y,IMU.Gyro_Z,IMU.Accel_X,IMU.Accel_Y,IMU.Accel_Z
1,0, , , , , , , , , , 
2,1622, , , , , , , , , , 
3,1900, , , , , , , ,0.0029,-0.0087,-0.9889
4,2000, , , , ,-0.325195,-0.325195,-0.325195,0,-0.0058,-0.9918
5,2100, , , , , , , ,0.0029,-0.0087,-0.9889
6,2229, , , , ,-0.325195,0,-0.325195, , , 
7,2296, , , , , , , , , , 
8,2399,0, , , ,-0.650391,-0.325195,0,0.0029,-0.0058,-0.9889
9,2500,0, , , ,0,-0.325195,-0.325195,0.0029,-0.0087,-0.9918
10,2599,0, , , ,-0.650391,-0.325195,-0.325195,0,-0.0087,-0.9889
11,2700,0, , , ,-0.325195,0,0,0.0029,-0.0029,-0.9889
12,2800,0, , , ,-0.325195,0,0,0,-0.0087,-0.9918
13,2899,0, , , ,-0.325195,0,0,0.0029,-0.0087,-0.9918
14,3000,0, , , ,-0.325195,-0.325195,0,0.0029,-0.0058,-0.9889
15,3100,0, , , ,-0.325195,-0.325195,0,0.0029,-0.0087,-0.9918
16,3200,0, , , , , , ,0.0029,-0.0087,-0.9889
17,3299,0, , , ,-0.650391,0,0,0.0029,-0.0058,-0.9918
18,3400,0,121.501839,31.286846,4,-0.325195,-0.325195,0,0,-0.0058,-0.9918
19,3499,0, , , ,-0.325195,-0.325195,-0.325195,0.0029,-0.0087,-0.9889
20,3600,0, , , ,-0.325195,-0.325195,-0.325195,0,-0.0087,-0.9918
21,3699,0, , , ,-0.325195,0,-0.325195,0.0029,-0.0058,-0.9918
22,3800,0, , , ,0,0,-0.325195,0.0029,-0.0058,-0.9889
23,3899,0, , , ,-0.325195,0,0,0.0029,-0.0087,-0.9918
24,4000,0, , , ,-0.325195,-0.325195,-0.325195,0,-0.0058,-0.9889
25,4100,0, , , ,-0.325195,-0.325195,-0.325195,0.0029,-0.0058,-0.9889
26,4200,0, , , , , , ,0.0029,-0.0058,-0.9918
27,4299,0, , , ,-0.325195,-0.325195,-0.325195,0.0029,-0.0087,-0.9889
28,4400,0,121.501839,31.286846,4,-0.325195,0,-0.325195,0.0029,-0.0087,-0.9918
29,4499,0, , , ,-0.325195,-0.325195,0,0,-0.0058,-0.9889
30,4600,0, , , ,-0.325195,0,-0.325195,0.0029,-0.0058,-0.9918
31,4699,0, , , ,-0.650391,-0.325195,0,0,-0.0087,-0.9918
32,4800,0, , , ,-0.650391,0,-0.325195,0.0029,-0.0087,-0.9918
33,4899,0, , , ,-0.325195,0,0,0,-0.0058,-0.9889
34,5000,0, , , ,-0.325195,-0.325195,-0.325195,0.0029,-0.0087,-0.9918
35,5100,0, , , ,-0.325195,0,-0.325195,0.0029,-0.0058,-0.9889
36,5200,0, , , , , , ,0.0029,-0.0087,-0.9918
37,5300,0, , , ,-0.325195,0,-0.325195,0.0029,-0.0087,-0.9889
38,5400,0,121.501839,31.286846,4,0.325195,0,0,0.0029,-0.0058,-0.9918
39,5499,0, , , ,-0.325195,-0.325195,-0.325195,0,-0.0058,-0.9889
40,5600,0, , , ,-0.650391,-0.325195,0,0.0029,-0.0087,-0.9889
41,5699,0, , , ,0,-0.325195,0,0,-0.0058,-0.9889
42,5800,0, , , ,-0.650391,0,-0.325195,0.0029,-0.0058,-0.9918
43,5900,0, , , ,-0.325195,-0.325195,-0.325195,0.0029,-0.0087,-0.9889
44,6000,0, , , ,0,-0.325195,0,0,-0.0058,-0.9918
45,6100,0, , , ,-0.325195,-0.325195,0,0.0029,-0.0058,-0.9889
46,6200,0, , , , , , ,0,-0.0087,-0.9918
47,6300,0, , , ,0,-0.325195,-0.325195,0.0029,-0.0087,-0.9918
48,6400,0,121.501839,31.286846,4,-0.325195,0,0,0,-0.0058,-0.9918
49,6500,0, , , ,-0.325195,-0.325195,-0.325195,0,-0.0087,-0.9889
50,6600,0, , , ,-0.325195,0,-0.325195,0.0029,-0.0058,-0.9918
51,6700,0, , , ,-0.325195,0,0,0.0029,-0.0029,-0.9889
52,6800,0, , , ,-0.325195,0,-0.325195,0,-0.0145,-0.9918
53,6901,0, , , ,-0.325195,0,-0.325195,0.0029,-0.0087,-0.9889
54,7000,0, , , ,0,0,0,0,0,-0.9918
55,7100,0, , , ,0,-0.325195,-0.325195,0.0029,-0.0087,-0.9918
56,7200,0, , , , , , ,0.0029,-0.0116,-0.9889
57,7299,0, , , ,-0.325195,-0.325195,-0.325195,0,-0.0029,-0.9918
58,7400,0,121.501839,31.286846,4,0.325195,0,-0.650391,-0.0116,-0.0087,-0.9889
59,7499,0, , , ,0,-0.325195,-0.325195,0.0058,-0.0087,-0.9918
60,7600,0, , , ,-0.325195,-0.325195,-0.325195,0,-0.0058,-0.9889
61,7701,0, , , ,-0.325195,0,-0.325195,0.0029,-0.0087,-0.9918
62,7800,0, , , ,-0.325195,-0.325195,-0.325195,0.0058,-0.0087,-0.9889
63,7899,0, , , ,0.325195,0,0,0,-0.0029,-0.9918
64,8000,0, , , ,-0.325195,0,0,0.0029,-0.0087,-0.9918
65,8100,0, , , ,-0.325195,0,-0.325195,0.0029,-0.0087,-0.9889
66,8200,0, , , , , , ,0,-0.0087,-0.9918
67,8301,0, , , ,-0.325195,-0.325195,0,0.0029,0,-0.9889
68,8399,0,121.501839,31.286846,4,-0.325195,-0.325195,-0.325195,0,-0.0087,-0.9889
69,8500,0, , , ,0,-0.325195,-0.325195,0.0029,-0.0116,-0.9947
70,8599,0, , , ,-0.325195,0,0,0.0029,-0.0058,-0.986
71,8700,0, , , ,-0.325195,0,0,0,-0.0058,-0.9918
72,8799,0, , , ,-0.325195,-0.325195,-0.325195,0.0029,-0.0116,-0.9918
73,8900,0, , , ,-0.325195,0,-0.650391,0.0029,-0.0058,-0.9889
74,8999,0, , , ,0,-0.325195,0,0,-0.0029,-0.9918
75,9100,0, , , ,-0.650391,0,0,0.0029,-0.0087,-0.9918
76,9200,0, , , ,-0.325195,-0.325195,-0.325195,0.0029,-0.0087,-0.986
77,9300,0, , , , , , ,0,-0.0058,-0.9947
78,9399,0,121.501839,31.286846,4,-0.325195,0,0,0.0029,-0.0058,-0.9889
79,9500,0, , , ,0,-0.325195,-0.325195,0,-0.0087,-0.9889
80,9599,0, , , ,-0.325195,0,0,0.0029,-0.0058,-0.9947
81,9700,0, , , ,0.325195,0,0,0.0029,-0.0058,-0.9889
82,9799,0, , , ,-0.325195,-0.325195,-0.325195,0,-0.0087,-0.9889
83,9900,0, , , ,-0.325195,-0.325195,-0.325195,0.0029,-0.0087,-0.9918
84,9999,0, , , ,-0.325195,0,-0.325195,0.0029,-0.0058,-0.9889
85,10100,0, , , ,-0.325195,0,-0.325195,0,-0.0058,-0.9889
86,10200,0, , , ,0,-0.325195,-0.325195,0.0029,-0.0087,-0.9918
87,10300,0, , , , , , ,0,-0.0058,-0.9889
88,10399,0,121.500923,31.288059,4,-0.325195,-0.325195,0,0,-0.0058,-0.9889
89,10500,0, , , ,-0.325195,0,-0.325195,0.0029,-0.0058,-0.9947
90,10599,0, , , ,-0.325195,-0.325195,-0.325195,0,-0.0087,-0.9889
91,10700,0, , , ,-0.325195,0,-0.325195,0.0029,-0.0058,-0.9889
92,10799,0, , , ,-0.325195,-0.325195,0,0,-0.0058,-0.9918
93,10900,0, , , ,-0.325195,-0.325195,0,0.0029,-0.0087,-0.9918
94,10999,0, , , ,0,0,-0.325195,0,-0.0087,-0.986
95,11100,0, , , ,-0.325195,0,0,0.0029,-0.0058,-0.9918
96,11200,0, , , ,-0.325195,0,-0.325195,0.0029,-0.0087,-0.9918
97,11300, , , , , , , ,0.0029,-0.0058,-0.9889
98,11399,0,121.500801,31.287991,4,-0.325195,-0.325195,-0.325195,0,-0.0058,-0.9918
99,11500,0, , , ,-0.325195,-0.325195,-0.325195,0.0029,-0.0087,-0.9918
100,11599,0, , , ,-0.650391,0,0,0.0029,-0.0087,-0.9918
101,11700,0, , , ,-0.325195,0,-0.325195,0,-0.0058,-0.9889
102,11799,0, , , ,-0.325195,-0.325195,-0.325195,0.0029,-0.0058,-0.9889
103,11900,0, , , ,-0.325195,-0.325195,-0.325195,0,-0.0087,-0.9947
104,11999,0, , , ,-0.325195,-0.325195,-0.325195,0.0029,-0.0058,-0.9918
105,12100,0, , , ,-0.650391,-0.325195,0,0,-0.0058,-0.986
106,12200,0, , , ,0,0,0,0.0029,-0.0087,-0.9947
107,12300,0, , , , , , ,0.0029,-0.0058,-0.9889
108,12399,0, , , ,0,-0.325195,-0.325195,0,-0.0058,-0.9889
109,12500,0, , , ,-0.325195,-0.325195,-0.325195,0,-0.0087,-0.9918
110,12599,0, , , ,-0.325195,0,0,0.0029,-0.0058,-0.9918
111,12700,0, , , ,0,-0.325195,-0.325195,0,-0.0087,-0.9889
112,12799,0, , , ,-0.325195,0,0,0.0029,-0.0087,-0.9889
113,12900, , , , ,-0.325195,-0.325195,-0.325195,0.0029,-0.0087,-0.9918
114,12999,0, , , ,-0.325195,0,-0.325195,0,-0.0058,-0.9918
115,13100,0,121.500801,31.287992,4,-0.325195,0,0,0.0058,-0.0087,-0.9918
116,13200,0, , , ,-0.325195,0,-0.325195,0,-0.0058,-0.9889
117,13300,0, , , , , , ,0,-0.0029,-0.9918
118,13399,0, , , ,-0.325195,0,0,0.0029,-0.0087,-0.9889
119,13500,0, , , ,0.325195,0,0,0,-0.0087,-0.9918
120,13599,0, , , ,-0.325195,-0.325195,0,0.0029,-0.0058,-0.9889
121,13700,0, , , ,-0.325195,0,0,0.0029,-0.0058,-0.9889
122,13799,0, , , ,0,-0.325195,-0.325195,0,-0.0087,-0.9918
123,13900,0, , , ,-0.325195,-0.325195,-0.325195,0.0029,-0.0087,-0.9918
124,13999,0, , , ,0,0,-0.325195,0,-0.0058,-0.9918
125,14100,0,121.500771,31.287979,4,-0.325195,0,-0.325195,0,-0.0087,-0.9918
126,14200,0, , , ,0,0,-0.325195,0.0029,-0.0087,-0.9889
127,14300,0, , , , , , ,0,-0.0058,-0.9918
128,14399, , , , ,-0.325195,0,-0.325195,0.0029,-0.0058,-0.9947
129,14500,0, , , ,-0.325195,0,0,0.0029,-0.0087,-0.9889
130,14599,0, , , ,-0.325195,-0.325195,-0.325195,0.0029,-0.0087,-0.9889
131,14700,0, , , ,-0.325195,0,0,0,-0.0029,-0.9918
132,14799,0, , , ,-0.325195,0,-0.325195,0.0029,-0.0087,-0.9918
133,14900,0, , , ,-0.325195,0,-0.325195,0,-0.0087,-0.9889
134,14999,0, , , ,0,-0.325195,-0.325195,0.0029,-0.0058,-0.9918
135,15100,0,121.500641,31.287907,4,-0.325195,0,-0.325195,0.0058,-0.0058,-0.9918
136,15199,0, , , ,-0.325195,-0.325195,-0.325195,0,-0.0087,-0.986
137,15300,0, , , ,0,-0.325195,-0.325195,0.0029,-0.0087,-0.9918
138,15400,0, , , , , , ,0.0058,-0.0058,-0.9918
139,15499,0, , , ,-0.325195,0,0,0,-0.0058,-0.9889
140,15600,0, , , ,-0.325195,-0.325195,-0.325195,0.0058,-0.0058,-0.9918
141,15699,0, , , ,0.650391,-0.325195,-0.325195,0.0029,-0.0058,-0.9947
142,15800,0, , , ,-0.650391,-0.325195,0,0,-0.0058,-0.9889
143,15899,0, , , ,-0.325195,0,-0.325195,0.0029,-0.0058,-0.986
144,16000,0, , , ,-0.325195,-0.325195,-0.325195,0.0029,-0.0058,-0.9918
145,16099,0,121.500641,31.287907,4,-0.325195,-0.325195,0,0,-0.0058,-0.9918
146,16200,0, , , ,-0.325195,-0.325195,0,0.0029,-0.0058,-0.986
147,16300,0, , , ,-0.325195,-0.325195,-0.325195,0.0174,-0.0087,-0.9918
148,16400,0, , , , , , ,0.0029,-0.0058,-0.9918
149,16499,0, , , ,-0.325195,0,0,0.0029,-0.0058,-0.986
150,16600,0, , , ,-0.650391,-0.325195,-0.325195,0.0029,-0.0087,-0.9918
151,16699,0, , , ,-0.325195,0,-0.325195,0.0116,-0.0087,-0.9918
152,16800, , , , ,-0.325195,0,-0.650391,0,-0.0058,-0.9773
153,16899,0, , , ,-0.325195,0,0,0,-0.0058,-0.9976
154,17000,0, , , ,0,0,0,0.0029,-0.0087,-0.9976
155,17099,0,121.501411,31.286873,141,-0.325195,-0.325195,0,0,-0.0087,-0.9889
156,17200,0, , , ,-0.650391,0,-0.325195,0.0087,-0.0058,-0.9918
157,17300,0, , , ,-0.325195,0,-0.325195,0.0058,-0.0058,-0.986
158,17400,0, , , , , , ,0.0029,-0.0116,-0.9947
159,17500,0, , , ,-0.650391,0,0, , , 
160,17599,0, , , ,-0.650391,0,-0.325195,0.0058,-0.0058,-0.9889
161,17700,0, , , ,-0.325195,0,-0.325195,0.0029,-0.0087,-0.9947
162,17799,0,121.50145,31.286734,141,0,0,-0.325195,0.0029,-0.0058,-0.9889
163,17900,0, , , ,-0.650391,0,-0.325195,0.0058,-0.0058,-0.9918
164,17999,0, , , ,0,0,0,0.0029,-0.0087,-0.9918
165,18100,0, , , ,-0.325195,0,0,0.0029,-0.0058,-0.9918
166,18199,0, , , ,-0.325195,0,-0.325195,0.0029,-0.0058,-0.9889
167,18300,0, , , ,-0.325195,0,-0.325195,0.0029,-0.0058,-0.9918
168,18400,0, , , ,-0.325195,0,0,0.0029,-0.0087,-0.9918
169,18500,0, , , , , , ,0.0029,-0.0058,-0.9889
170,18599,0, , , ,0.975586,0,-0.325195,0.0029,-0.0087,-0.9918
171,18700,0, , , ,-0.325195,-0.325195,0,0.0058,-0.0087,-0.9918
172,18799,0,121.501411,31.286814,141,-0.325195,0,-0.325195,0.0029,-0.0058,-0.9889
173,18900,0, , , ,-0.325195,0,-0.325195,0.0029,-0.0087,-0.9947
174,18999,0, , , ,-0.325195,0,-0.325195,0.0058,-0.0058,-0.9918
175,19100,0, , , ,-0.325195,0,0,0.0029,-0.0058,-0.9889
176,19199,0, , , ,-0.325195,-0.325195,-0.325195,0.0058,-0.0058,-0.9918
177,19300,0, , , ,-0.325195,0,-0.325195,0.0058,-0.0058,-0.9918
178,19400,0, , , ,0,0,-0.325195,0.0029,-0.0058,-0.9889
179,19500,0, , , , , , ,0.0029,-0.0058,-0.9918
180,19599,0, , , ,-0.325195,0,-0.325195,0.0058,-0.0087,-0.9947
181,19700,0, , , ,0,0,0,0.0029,-0.0058,-0.9889
182,19799,0,121.501411,31.286921,141,0,0,-0.325195,0.0029,-0.0058,-0.9889
183,19900,0, , , ,-0.650391,0,-0.325195,0.0029,-0.0087,-0.9918
184,19999,0, , , ,-0.650391,0,-0.325195,0.0029,-0.0058,-0.9918
185,20100,0, , , ,-0.325195,0,-0.325195,0.0029,-0.0058,-0.9918
186,20199,0, , , ,-0.325195,-0.650391,-0.650391,0.0029,-0.0058,-0.9889
187,20300,0, , , ,-0.325195,0,0,0.0029,-0.0058,-0.9918
188,20400,0, , , ,0,-0.325195,-0.325195,0.0058,-0.0058,-0.9918
189,20500,0, , , , , , ,0.0029,-0.0058,-0.9889
190,20599,0, , , ,-0.325195,0,-0.325195,0.0029,-0.0058,-0.9889
191,20700,0, , , ,-0.650391,-0.325195,-0.325195,0.0029,-0.0087,-0.9889
192,20799,0,121.501495,31.286869,141,-0.325195,0,0,0.0058,-0.0058,-0.9918
193,20900,0, , , ,-0.325195,0,-0.325195,0.0029,-0.0087,-0.9918
194,20999,0, , , ,-0.650391,-0.325195,-0.325195,0.0029,-0.0058,-0.9889
195,21100,0, , , ,0,0,-0.325195,0.0029,-0.0087,-0.9918
196,21199, , , , ,-0.325195,-0.325195,-0.325195,0.0029,-0.0058,-0.9918
197,21300,0, , , ,0,0,-0.325195,0.0029,-0.0087,-0.9918
198,21400,0, , , ,-0.325195,0,-0.325195,0.0029,-0.0058,-0.9889
199,21500,0, , , , , , ,0.0029,-0.0058,-0.9889
200,21599,0, , , ,0,-0.325195,-0.325195,0.0029,-0.0058,-0.9918
201,21700,0, , , ,-0.325195,-0.325195,0,0.0029,-0.0087,-0.9918
202,21799, ,121.501518,31.286934,141,-0.325195,0,-0.325195,0.0029,-0.0058,-0.9889
203,21900,0, , , ,0,0,-0.325195,0.0029,-0.0058,-0.9889
204,21999,0, , , ,-0.325195,0,0,0.0029,-0.0058,-0.9918
205,22100,0, , , ,0,0,-0.325195,0.0058,-0.0087,-0.9918
206,22199,0, , , ,-0.650391,0,-0.325195,0.0029,-0.0058,-0.9918
207,22300,0, , , ,-0.325195,-0.325195,-0.325195,0.0029,-0.0058,-0.9889
208,22400,0, , , ,0,-0.325195,0,0.0029,-0.0058,-0.9889
209,22500,0, , , , , , ,0.0029,-0.0087,-0.9918
210,22599,0, , , ,0,0,-0.325195,0.0029,-0.0058,-0.9918
211,22700,0, , , ,0,0,0,0.0029,-0.0058,-0.9889
212,22799,0,121.501572,31.28698,141,0,0,0,0.0029,-0.0058,-0.9889
213,22900,0, , , ,-0.325195,0,0,0.0029,-0.0087,-0.9918
214,22999,0, , , ,-0.325195,-0.325195,-0.650391,0.0029,-0.0058,-0.9918
215,23100,0, , , ,0,-0.325195,-0.325195,0.0029,-0.0058,-0.9889
216,23199,0, , , ,-0.325195,0,0,0.0029,-0.0058,-0.9889
217,23300,0, , , ,-0.650391,0,0,0.0029,-0.0058,-0.9918
218,23400,0, , , ,-0.325195,-0.325195,-0.325195,0.0029,-0.0087,-0.9918
219,23500,0, , , , , , ,0.0029,-0.0058,-0.9889
220,23599,0, , , ,-0.325195,0,-0.650391,0.0029,-0.0087,-0.9889
221,23700,0, , , ,-0.325195,-0.325195,-0.325195,0.0029,-0.0058,-0.9889
222,23799,0,121.501625,31.287001,141,-0.325195,0,-0.325195,0.0029,-0.0058,-0.9918
223,23900,0, , , ,0,-0.325195,-0.325195,0.0029,-0.0058,-0.9918
224,23999,0, , , ,0,0,-0.325195,0.0029,-0.0058,-0.9889
225,24100,0, , , ,0.650391,0,-0.325195,0.0029,-0.0058,-0.9889
226,24200,0, , , ,-0.325195,0,0,0.0029,-0.0058,-0.9918
227,24299,0, , , ,0,0,0,0.0029,-0.0058,-0.9918
228,24400,0, , , ,-0.325195,0,-0.325195,0.0029,-0.0058,-0.986
229,24500,0, , , ,-0.325195,0,-0.325195,0.0029,-0.0058,-0.9889
230,24600,0, , , , , , ,0.0058,-0.0058,-0.9947
231,24699,0, , , ,-0.325195,0,-0.650391,0.0029,-0.0058,-0.9889
232,24800,0,121.501678,31.28702,141,-0.650391,-0.325195,0,0.0029,-0.0058,-0.9889
233,24899,0, , , ,-0.325195,0,-0.325195,0.0029,-0.0087,-0.9918
234,25000,0, , , ,-0.325195,0,0,0.0029,-0.0058,-0.9918
235,25099,0, , , ,-0.325195,-0.325195,-0.325195,0.0029,-0.0058,-0.9889
236,25200,0, , , ,-0.325195,-0.325195,-0.650391,0.0029,-0.0058,-0.9889
237,25299,0, , , ,-0.325195,0,0,0.0029,-0.0058,-0.9918
238,25400,0, , , ,0,0,-0.325195,0.0029,-0.0058,-0.9918
239,25500,0, , , ,-0.325195,-0.650391,-0.325195,0.0029,-0.0058,-0.9889
240,25600,0, , , , , , ,0.0029,-0.0058,-0.9889
241,25699,0, , , ,-0.325195,-0.325195,-0.325195,0.0029,-0.0087,-0.9918
242,25800,0,121.501762,31.286993,141,-0.325195,0,0,0.0058,-0.0058,-0.9889
243,25899,0, , , ,-0.325195,0,-0.325195,0.0029,-0.0058,-0.9889
244,26000,0, , , ,-0.325195,-0.650391,-0.325195,0.0029,-0.0058,-0.9918
245,26099,0, , , ,-0.325195,-0.325195,-0.325195,0.0029,-0.0087,-0.9918
246,26200,0, , , ,-0.325195,-0.325195,-0.325195,0.0029,-0.0058,-0.9918
247,26299,0, , , ,-0.325195,0,0,0.0029,-0.0058,-0.9889
248,26400,0, , , ,0.325195,0,-0.325195,0.0029,-0.0058,-0.9889
249,26500,0, , , ,-0.325195,0,0,0.0029,-0.0087,-0.9918
250,26600,0, , , , , , ,0.0029,-0.0058,-0.9918
251,26699,0, , , ,-0.325195,0,0,0.0029,-0.0058,-0.9889
252,26800,0,121.501816,31.286974,141,-0.325195,0,0,0.0029,-0.0058,-0.9889
253,26899,0, , , ,-0.325195,0,-0.325195,0.0029,-0.0087,-0.9918
254,27000,0, , , ,-0.325195,-0.325195,-0.325195,0.0058,-0.0058,-0.9918
255,27099,0, , , ,-0.325195,-0.325195,-0.325195,0.0029,-0.0058,-0.9889
256,27200,0, , , ,-0.325195,-0.325195,-0.325195,0.0029,-0.0058,-0.9889
257,27299,0, , , ,-0.650391,-0.325195,0,0.0029,-0.0058,-0.9918
258,27400,0, , , ,0.325195,0,0,0.0029,-0.0087,-0.9918
259,27500,0, , , ,0,0,-0.325195,0.0029,-0.0058,-0.9889
260,27600,0, , , , , , ,0.0029,-0.0058,-0.9889
261,27699,0, , , ,-0.325195,0,-0.325195,0.0058,-0.0058,-0.9918
262,27800,0,121.501877,31.28693,141,-0.325195,0,0,0.0029,-0.0058,-0.9918
263,27899,0, , , ,0,0,-0.325195,0.0029,-0.0058,-0.9889
264,28000,0, , , ,-0.325195,-0.325195,0,0.0029,-0.0058,-0.9889
265,28099,0, , , ,-0.325195,0,-0.325195,0.0029,-0.0058,-0.9918
266,28200,0, , , ,-0.325195,0,0,0.0029,-0.0058,-0.9918
267,28299,0, , , ,-0.325195,0,-0.325195,0.0029,-0.0058,-0.9889
268,28400,0, , , ,-0.325195,0,-0.325195,0.0029,-0.0058,-0.9889
269,28500,0, , , ,-0.325195,0,0,0.0029,-0.0058,-0.9918
270,28600,0, , , , , , ,0.0029,-0.0058,-0.9918
271,28699,0, , , ,-0.325195,0,-0.325195,0.0029,-0.0058,-0.9889
272,28800,0,121.501892,31.286961,141,-0.325195,0,-0.325195,0.0029,-0.0058,-0.9889
273,28899,0, , , ,-0.325195,0,-0.325195,0.0058,-0.0058,-0.9918
274,29000,0, , , ,-0.325195,0,-0.325195,0.0029,-0.0058,-0.9889
275,29099,0, , , ,-0.325195,0,0,0.0029,-0.0058,-0.9889
276,29200,0, , , ,-0.325195,0,0,0.0029,-0.0058,-0.9918
277,29299,0, , , ,0,0,-0.325195,0.0029,-0.0058,-0.9918
278,29400,0, , , ,-0.325195,0,-0.325195,0.0029,-0.0058,-0.9918
279,29500,0, , , ,0,0,0,0.0029,-0.0058,-0.9889
280,29600,0, , , , , , ,0.0029,-0.0058,-0.9918
281,29699,0, , , ,-0.325195,-0.325195,-0.325195,0.0029,-0.0058,-0.9918
282,29800,0,121.501907,31.28694,141,-0.325195,0,0,0.0029,-0.0058,-0.9918
283,29899,0, , , ,-0.325195,0,-0.325195,0.0029,-0.0058,-0.9889
284,30000,0, , , ,-0.325195,0,-0.325195,0.0029,-0.0087,-0.9918
285,30099,0, , , ,0,0,-0.325195,0.0058,-0.0058,-0.9918
286,30200,0, , , ,-0.325195,0,0,0.0029,-0.0058,-0.9889
287,30299,0, , , ,0,0,-0.325195,0.0029,-0.0058,-0.9889
288,30400,0, , , ,-0.325195,0,-0.325195,0.0029,-0.0058,-0.9918
289,30500,0, , , ,0,0,-0.325195,0.0058,-0.0087,-0.9918
290,30600,0, , , , , , ,0.0029,-0.0058,-0.9889
291,30699,0, , , ,-0.325195,-0.325195,-0.325195,0.0029,-0.0058,-0.9889
292,30800,0,121.501923,31.286934,141,-0.650391,-0.325195,-0.325195,0.0029,-0.0058,-0.9947
293,30899,0, , , ,-0.650391,0,-0.325195,0.0029,-0.0058,-0.9918
294,31000,0, , , ,-0.325195,0,-0.325195,0.0029,-0.0058,-0.9889
295,31099,0, , , ,-0.325195,0,-0.325195,0.0029,-0.0058,-0.9889
296,31200,0, , , ,-0.325195,0,0,0.0029,-0.0058,-0.9918
297,31299,0, , , ,-0.325195,-0.325195,-0.325195,0.0029,-0.0058,-0.9918
298,31400,0, , , ,-0.650391,0,0,0.0029,-0.0058,-0.9889
299,31500,0, , , ,-0.325195,0,-0.325195,0.0029,-0.0058,-0.9889
300,31600,0, , , , , , ,0.0029,-0.0058,-0.9889
301,31699,0, , , ,-0.325195,-0.325195,0,0.0029,-0.0058,-0.9918
302,31800,0,121.501923,31.286926,141,-0.325195,-0.325195,-0.325195,0.0029,-0.0087,-0.9918
303,31899,0, , , ,-0.325195,0,0,0.0029,-0.0058,-0.9889
304,32000,0, , , ,-0.325195,0,0,0.0029,-0.0058,-0.9918
305,32099,0, , , ,-0.325195,0,-0.325195,0.0029,-0.0058,-0.9947
306,32200,0, , , ,-0.325195,0,0,0.0029,-0.0058,-0.9889
307,32299,0, , , ,-0.325195,0,0,0.0029,-0.0058,-0.9889
308,32400,0, , , ,-0.325195,0,-0.325195,0.0029,-0.0058,-0.9889
309,32500,0, , , ,-0.650391,0,0,0.0058,-0.0087,-0.9918
310,32600,0, , , , , , ,0.0029,-0.0058,-0.9918
311,32699,0, , , ,0,0,0,0.0029,-0.0058,-0.9889
312,32800,0,121.50193,31.286943,141,0,-0.325195,0,0.0029,-0.0058,-0.9918
313,32899,0, , , ,-0.325195,0,-0.325195,0.0029,-0.0058,-0.9918
314,33000,0, , , ,-0.325195,0,0,0.0058,-0.0087,-0.9918
315,33099,0, , , ,0,0,0,0.0029,-0.0058,-0.9889
316,33200,0, , , ,-0.325195,-0.325195,-0.325195,0.0029,-0.0058,-0.9889
317,33299,0, , , ,-0.325195,-0.325195,-0.325195,0.0058,-0.0087,-0.9947
318,33400,0, , , ,-0.325195,0,0,0.0029,-0.0058,-0.9889
319,33500,0, , , ,-0.325195,0,-0.325195,0.0029,-0.0058,-0.9889
320,33600,0, , , , , , ,0.0058,-0.0058,-0.9918
321,33699,0, , , ,-0.325195,0,-0.325195,0.0029,-0.0087,-0.9918
322,33800,0,121.501961,31.286947,141,-0.325195,0,-0.325195,0.0029,-0.0058,-0.9918
323,33899,0, , , ,-0.325195,0,-0.325195,0.0029,-0.0058,-0.9889
324,34000,0, , , ,0,-0.325195,-0.325195,0.0029,-0.0058,-0.9889
325,34100,0, , , ,-0.325195,0,0,0.0029,-0.0058,-0.9918
326,34200,0, , , ,0,0,0,0.0029,-0.0058,-0.9918
327,34299,0, , , ,0,-0.325195,-0.325195,0.0029,-0.0058,-0.9889
328,34400,0, , , ,-0.325195,0,-0.650391,0.0029,-0.0087,-0.9918
329,34500,0, , , ,-0.325195,-0.325195,-0.325195,0.0029,-0.0058,-0.9918
330,34600,0, , , , , , ,0.0058,-0.0087,-0.9918
331,34699,0, , , ,-0.650391,0,-0.325195,0.0029,-0.0058,-0.9889
332,34800,0,121.501961,31.286936,141,-0.325195,0,-0.325195,0.0029,-0.0058,-0.9889
333,34899,0, , , ,-0.325195,0,0,0.0029,-0.0058,-0.9889
334,35000,0, , , ,-0.650391,0,-0.325195,0.0029,-0.0058,-0.9918
335,35099,0, , , ,0,0,-0.325195,0.0029,-0.0058,-0.9918
336,35200,0, , , ,-0.325195,-0.325195,-0.325195,0.0029,-0.0058,-0.9889
337,35299,0, , , ,0,0,-0.325195,0.0029,-0.0058,-0.9889
338,35400,0, , , ,0,0,0,0.0029,-0.0058,-0.9918
339,35500,0, , , ,-0.650391,0,-0.325195,0.0029,-0.0058,-0.9918
340,35600,0, , , , , , ,0.0029,-0.0058,-0.9889
341,35701,0, , , ,-0.325195,0,-0.325195,0.0029,-0.0058,-0.9889
342,35799,0,121.501945,31.286953,141,-0.325195,0,-0.325195,0.0029,-0.0058,-0.9918
343,35900,0, , , ,-0.325195,0,-0.325195,0.0058,-0.0058,-0.9918
344,35999,0, , , ,-0.325195,0,0,0.0029,-0.0058,-0.9889
345,36100,0, , , ,-0.650391,0,-0.325195,0.0029,-0.0058,-0.9889
346,36199,0, , , ,-0.325195,0,-0.325195,0.0029,-0.0058,-0.9918
347,36300,0, , , ,-0.325195,0,0,0.0058,-0.0058,-0.9918
348,36399,0, , , ,-0.325195,0,-0.325195,0.0058,-0.0058,-0.9918
349,36500,0, , , ,0,-0.325195,-0.325195,0.0029,-0.0058,-0.9889
350,36600,0, , , ,-0.325195,0,-0.325195,0.0029,-0.0058,-0.9889
351,36700,0, , , , , , ,0.0029,-0.0087,-0.9918
352,36799,0,121.50193,31.286974,141,-0.325195,-0.325195,0,0.0029,-0.0058,-0.9918
353,36900,0, , , ,0,0,-0.325195,0.0029,-0.0058,-0.9889
354,36999,0, , , ,-0.325195,-0.325195,0,0.0029,-0.0058,-0.9918
355,37100,0, , , ,-0.325195,0,-0.325195,0.0029,-0.0087,-0.9947
356,37199,0, , , ,-0.325195,0,0,0.0029,-0.0058,-0.9889
357,37300,0, , , ,-0.650391,0,0,0.0029,-0.0058,-0.9918
358,37399,0, , , ,0,0,0,0.0029,-0.0058,-0.9889
359,37500,0, , , ,0,-0.325195,-0.325195,0.0058,-0.0058,-0.9918
360,37600,0, , , ,0,0,-0.325195,0.0029,-0.0058,-0.9918
361,37700,0, , , ,-0.325195,-0.325195,-0.325195,0.0029,-0.0058,-0.9889
362,37800,0,121.50193,31.286974,141, , , ,0.0029,-0.0058,-0.9889
363,37899,0, , , ,-0.650391,0,0,0.0058,-0.0058,-0.9918
364,38000,0, , , ,0,1.300781,0.325195,0.0029,-0.0058,-0.9918
365,38099,0, , , ,-0.325195,-0.325195,0,0.0029,-0.0058,-0.9889
366,38200,0, , , ,-0.325195,-0.325195,-0.325195,0.0029,-0.0058,-0.9889
367,38299,0, , , ,0.325195,0,-0.325195,0.0029,-0.0058,-0.9918
368,38400,0, , , ,-0.650391,-0.325195,0,0.0029,-0.0058,-0.9918
369,38499,0, , , ,0,0.650391,0.325195,0.0029,-0.0058,-0.9918
370,38600,0, , , ,-0.650391,-0.325195,0,0.0029,-0.0058,-0.9889
371,38700,0, , , ,-0.325195,-0.325195,-0.325195,0.0029,-0.0058,-0.9889
372,38800,0,121.50193,31.286993,141, , , ,0.0029,-0.0087,-0.9918
373,38899,0, , , ,-1.300781,-0.325195,-0.325195,0.0029,-0.0058,-0.9918
374,39000,0, , , ,0,0.325195,0,0.0029,-0.0058,-0.9889
375,39100,0, , , ,-0.325195,-0.650391,-0.325195,0.0029,-0.0058,-0.9889
376,39200,0, , , ,0.325195,-0.325195,-0.325195,0.0029,-0.0058,-0.9918
377,39300,0, , , ,-0.325195,0,-0.325195,0.0029,-0.0087,-0.9918
378,39400,0, , , ,-1.625977,0,0,0.0029,-0.0058,-0.9918
379,39500,0, , , ,0,0,-0.325195,0.0029,-0.0058,-0.9889
380,39600,0, , , ,0,-0.650391,-0.325195,0.0029,-0.0058,-0.9889
381,39700,0, , , ,0,0,0,0.0029,-0.0087,-0.9918
382,39800,0,121.501923,31.286983,141, , , ,0.0058,-0.0058,-0.9918
383,39900,0, , , ,0,0,-0.325195, , , 
384,39999,0, , , ,-0.975586,-0.325195,0,0.0029,-0.0087,-0.9889
385,40100,0, , , ,0,0,-0.325195,0.0029,-0.0058,-0.9889
386,40201,0, , , ,0,-0.975586,-0.325195,0.0029,-0.0029,-0.9947
387,40300,0, , , ,0,-0.325195,0,0.0029,-0.0087,-0.9889
388,40399,0, , , ,0,-0.325195,0,0.0029,-0.0087,-0.9889
389,40500,0, , , ,-1.625977,0,0,0.0029,-0.0029,-0.9889
390,40601,0, , , ,0,0,-0.650391,0.0029,-0.0087,-0.9918
391,40700,0, , , ,0,-0.975586,-0.325195,0.0029,-0.0087,-0.9918
392,40800,0,121.501923,31.286993,141,-0.325195,0,-0.325195,0.0029,-0.0058,-0.9889
393,40900,0, , , , , , ,0.0029,-0.0029,-0.9889
394,40999,0, , , ,0.650391,0,0,0.0029,-0.0087,-0.9918
395,41100,0, , , ,0,0,-0.650391,0.0058,-0.0058,-0.9918
396,41199,0, , , ,0,-0.650391,-0.325195,0.0029,-0.0058,-0.9918
397,41300,0, , , ,-0.325195,-0.325195,0,0.0029,-0.0087,-0.986
398,41399,0, , , ,0.325195,-0.325195,-0.325195,0.0029,-0.0058,-0.9918
399,41500,0, , , ,-0.650391,-0.325195,0,0.0029,-0.0058,-0.9918
400,41599,0, , , ,0.975586,0,-0.650391,0.0029,-0.0058,-0.9918
401,41700,0, , , ,-0.325195,-0.650391,0,0.0029,-0.0087,-0.9918
402,41800,0,121.501923,31.287001,141,-0.325195,0,-0.325195,0.0029,-0.0058,-0.9889
403,41900,0, , , , , , ,0.0029,-0.0058,-0.9918
404,41999,0, , , ,0,0,0,0.0029,-0.0087,-0.9918
405,42100,0, , , ,0,0,-0.650391,0.0029,-0.0058,-0.9918
406,42199,0, , , ,-0.325195,-0.325195,0,0.0029,-0.0058,-0.9889
407,42300,0, , , ,-0.325195,-0.325195,-0.325195,0.0029,-0.0058,-0.9889
408,42399,0, , , ,-0.325195,-0.325195,0,0.0029,-0.0058,-0.9918
409,42500,0, , , ,-0.325195,0,0,0.0029,-0.0058,-0.9918
410,42599,0, , , ,0,0,-0.650391,0.0029,-0.0058,-0.9889
411,42700,0, , , ,-0.325195,-0.325195,0,0.0029,-0.0058,-0.9889
412,42800,0,121.501877,31.287029,141,-0.325195,0,-0.325195,0.0029,-0.0058,-0.9918
413,42900,0, , , , , , ,0.0029,-0.0058,-0.9918
414,42999,0, , , ,-0.325195,0,0,0.0029,-0.0058,-0.9918
415,43100,0, , , ,0.325195,-0.325195,-0.650391,0.0029,-0.0058,-0.9889
416,43199,0, , , ,0,0,0,0.0029,-0.0058,-0.9889
417,43300,0, , , ,-0.325195,0,-0.325195,0.0029,-0.0058,-0.9918
418,43399,0, , , ,-0.325195,-0.325195,-0.325195,0.0029,-0.0058,-0.9889
419,43500,0, , , ,-0.650391,-0.325195,0,0.0029,-0.0058,-0.9889
420,43599,0, , , ,0.650391,0,-0.975586,0.0029,-0.0058,-0.9889
421,43700,0, , , ,-0.325195,-0.325195,0,0.0029,-0.0058,-0.9918
422,43800,0,121.501854,31.287073,141,-0.325195,0,0,0.0029,-0.0058,-0.9918
423,43900,0, , , , , , ,0.0029,-0.0058,-0.9918
424,43999,0, , , ,0,0,-0.325195,0.0029,-0.0058,-0.9889
425,44100,0, , , ,0,-0.325195,-0.975586,0.0029,-0.0058,-0.9889
426,44199,0, , , ,0,0,0,0.0029,-0.0058,-0.9918
427,44300,0, , , ,-0.325195,0,0,0.0029,-0.0058,-0.9918
428,44399,0, , , ,-0.325195,0,-0.325195,0.0029,-0.0058,-0.9918
429,44500,0, , , ,-0.325195,0,0,0.0029,-0.0058,-0.9889
430,44599,0, , , ,0,-0.325195,-0.975586,0.0029,-0.0058,-0.9889
431,44700,0, , , ,0,-0.325195,0,0.0029,-0.0058,-0.9918
432,44800,0,121.501823,31.287104,141,0,0,0,0.0029,-0.0058,-0.9918
433,44900,0, , , , , , ,0.0029,-0.0058,-0.9918
434,44999,0, , , ,-0.325195,0,0,0.0029,-0.0058,-0.9889
435,45100,0, , , ,-0.325195,-0.325195,-1.625977,0.0029,-0.0058,-0.9889
436,45199,0, , , ,-0.325195,-0.325195,0,0.0029,-0.0058,-0.9918
437,45300,0, , , ,0,0,0,0.0029,-0.0058,-0.9918
438,45399,0, , , ,-0.325195,0,0,0.0029,-0.0058,-0.9889
439,45500,0, , , ,-0.325195,-0.325195,-0.325195,0.0029,-0.0058,-0.9889
440,45599,0, , , ,0,-0.325195,-1.300781,0.0029,-0.0058,-0.9889
441,45700,0, , , ,-0.325195,-0.325195,0,0.0029,-0.0058,-0.9918
442,45800,0,121.501816,31.287134,141,0,0,0,0.0029,-0.0058,-0.9918
443,45900,0, , , , , , ,0.0029,-0.0058,-0.9889
444,45999,0, , , ,0,-0.650391,-0.325195,0.0029,-0.0058,-0.9889
445,46100,0, , , ,0,-0.325195,-0.650391,0.0029,-0.0087,-0.9918
446,46199,0, , , ,-0.325195,0,0.325195,0.0029,-0.0058,-0.9918
447,46300,0, , , ,-0.325195,0,0,0.0029,-0.0058,-0.9918
448,46399,0, , , ,-0.650391,0,0,0.0029,-0.0058,-0.9889
449,46500,0, , , ,0,-0.650391,-0.325195,0.0029,-0.0058,-0.9918
450,46599,0, , , ,-0.325195,-0.325195,-0.650391,0.0029,-0.0058,-0.9918
451,46700,0, , , ,0,-0.325195,0.325195,0.0029,-0.0058,-0.9918
452,46800,0,121.501785,31.287167,141,-0.325195,0,0,0.0029,-0.0058,-0.9889
453,46900,0, , , , , , ,0.0029,-0.0058,-0.9889
454,46999,0, , , ,0,-0.650391,0,0.0029,-0.0058,-0.9918
455,47100,0, , , ,-0.325195,-0.325195,-0.650391,0.0029,-0.0058,-0.9918
456,47199,0, , , ,0,0,0,0.0029,-0.0058,-0.9889
457,47300,0, , , ,0,0,0,0.0029,-0.0058,-0.9889
458,47399,0, , , ,-0.325195,-0.325195,0,0.0029,-0.0058,-0.9889
459,47500,0, , , ,-0.325195,-0.650391,-0.650391,0.0029,-0.0058,-0.9918
460,47601,0, , , ,-0.325195,-0.325195,-0.325195,0.0029,-0.0058,-0.9918
461,47700,0, , , ,-0.650391,-0.325195,0.325195,0.0029,-0.0058,-0.9889
462,47800,0,121.501762,31.287188,141,-0.325195,0,0,0.0029,-0.0058,-0.9889
463,47900,0, , , , , , ,0.0029,-0.0058,-0.9889
464,47999,0, , , ,0,-0.325195,-0.325195,0.0029,-0.0058,-0.9918
465,48100,0, , , ,-0.325195,0,-0.325195,0.0029,-0.0058,-0.9918
466,48199,0, , , ,0,0,0,0.0029,-0.0058,-0.9889
467,48300,0, , , ,0,-0.325195,-0.325195,0.0029,-0.0058,-0.9889
468,48399,0, , , ,0,-0.325195,-0.325195,0.0029,-0.0058,-0.9889
469,48500,0, , , ,0,0,-0.650391,0.0029,-0.0087,-0.9918
470,48599,0, , , ,0,0,0,0.0029,-0.0058,-0.9918
471,48700,0, , , ,-0.650391,0,0,0.0029,-0.0058,-0.9889
472,48800,0,121.501747,31.287201,141,-0.325195,0,-0.325195,0.0029,-0.0058,-0.9889
473,48900,0, , , , , , ,0.0029,-0.0058,-0.9918
474,48999,0, , , ,0,0,0,0.0029,-0.0058,-0.9918
475,49100,0, , , ,0.325195,0,-0.325195,0.0029,-0.0058,-0.9918
476,49199,0, , , ,0,-0.325195,-0.325195,0.0029,-0.0058,-0.986
477,49300,0, , , ,0,-0.325195,-0.325195,0.0029,-0.0058,-0.9889
478,49399,0, , , ,0,-0.325195,-0.325195,0.0029,-0.0058,-0.9918
479,49500,0, , , ,0,0,-0.325195,0.0029,-0.0058,-0.9918
480,49599,0, , , ,-0.325195,0,-0.325195,0.0029,-0.0058,-0.9918
481,49700,0, , , ,-0.325195,-0.325195,-0.325195,0.0029,-0.0058,-0.9889
482,49800,0,121.501747,31.287216,141,-0.325195,0,0,0.0029,-0.0058,-0.9889
483,49900,0, , , , , , ,0.0029,-0.0058,-0.9918
484,50001,0, , , ,0,-0.325195,-0.325195,0.0029,-0.0058,-0.9918
485,50099,0, , , ,-0.325195,0,0,0.0029,-0.0058,-0.9918
486,50200,0, , , ,-0.325195,0,-0.325195,0.0029,-0.0058,-0.9889
487,50299,0, , , ,-0.325195,0,0,0.0029,-0.0058,-0.9889
488,50400,0, , , ,0,0,-0.325195,0.0029,-0.0058,-0.9918
489,50499,0, , , ,-0.325195,-0.325195,-0.325195,0.0029,-0.0058,-0.9918
490,50600,0, , , ,-0.325195,0,-0.325195,0.0029,-0.0058,-0.9918
491,50699,0, , , ,0,-0.325195,0,0.0029,-0.0058,-0.9889
492,50800,0,121.501732,31.28722,141,-0.325195,0,-0.325195,0.0029,-0.0058,-0.9889
493,50900,0, , , ,-0.325195,-0.325195,-0.325195,0.0029,-0.0058,-0.9918
494,51000,0, , , , , , ,0.0029,-0.0058,-0.9918
495,51099,0, , , ,-0.325195,0,-0.650391,0.0029,-0.0058,-0.9918
496,51200,0, , , ,0,-0.650391,-0.325195,0.0029,-0.0058,-0.9889
497,51299,0, , , ,-0.325195,0,-0.325195,0.0029,-0.0058,-0.9889
498,51400,0, , , ,0,0,-0.650391,0.0029,-0.0058,-0.9918
499,51499,0, , , ,-0.650391,0,0,0.0029,-0.0058,-0.9918
500,51600,0, , , ,-0.650391,0,-0.650391,0.0029,-0.0058,-0.9918
501,51699,0, , , ,-0.325195,-0.325195,0,0.0058,-0.0058,-0.9889
502,51800,0,121.501717,31.287243,141,-0.325195,0,0,0.0029,-0.0058,-0.9918
503,51900,0, , , ,-0.325195,0,-0.325195,0.0029,-0.0058,-0.9889
504,52000,0, , , , , , ,0.0029,-0.0058,-0.9918
505,52099,0, , , ,-0.325195,0.325195,-0.325195,0.0029,-0.0087,-0.9918
506,52200,0, , , ,-0.325195,-0.650391,0,0.0029,-0.0058,-0.9889
507,52299,0, , , ,-0.325195,0,-0.325195,0.0029,-0.0058,-0.9889
508,52400,0, , , ,0,0,-0.650391,0.0029,-0.0058,-0.9889
509,52499,0, , , ,-0.650391,0,0,0.0058,-0.0087,-0.9918
510,52600,0, , , ,0,0.325195,-0.325195,0.0029,-0.0058,-0.9918
511,52699,0, , , ,-0.650391,-0.325195,0,0.0029,-0.0058,-0.9889
512,52800,0,121.501709,31.287256,141,-0.325195,-0.325195,-0.325195,0.0029,-0.0058,-0.9889
513,52900,0, , , ,0,0,-0.325195,0.0029,-0.0058,-0.9889
514,53000,0, , , , , , ,0.0029,-0.0058,-0.9918
515,53101,0, , , ,-0.650391,-0.325195,-0.325195,0.0029,-0.0058,-0.9918
516,53199,0, , , ,-0.325195,0,-0.325195,0.0029,-0.0058,-0.9889
517,53300,0, , , ,-0.325195,-0.325195,0,0.0029,-0.0058,-0.9889
518,53399,0, , , ,-0.325195,0,-0.325195,0.0029,-0.0058,-0.9889
519,53500,0, , , ,-0.325195,0,-0.325195,0.0029,-0.0058,-0.9918
520,53599,0, , , ,-0.650391,-0.325195,0,0.0029,-0.0058,-0.9918
521,53700,0, , , ,0,0.975586,0.650391,0.0029,-0.0058,-0.9889
522,53799,0,121.501709,31.287252,141,-0.325195,-0.650391,0,0.0029,-0.0058,-0.9889
523,53900,0, , , ,-0.325195,-0.325195,-0.325195,0.0029,-0.0058,-0.9889
524,54000,0, , , ,-0.325195,0,-0.325195,0.0029,-0.0058,-0.9918
525,54100,0, , , , , , ,0.0029,-0.0058,-0.9918
526,54199,0, , , ,0,0.325195,0,0.0029,-0.0058,-0.9889
527,54300,0, , , ,-0.325195,-0.650391,-0.325195,0.0029,-0.0058,-0.9889
528,54399,0, , , ,-0.325195,0,-0.325195,0.0029,-0.0058,-0.9918
529,54500,0, , , ,0.325195,0,-0.325195,0.0029,-0.0058,-0.9918
530,54599,0, , , ,-1.300781,-0.325195,0,0.0029,-0.0058,-0.9918
531,54700,0, , , ,0,0.325195,-0.325195,0.0029,-0.0058,-0.9889
532,54799,0,121.501694,31.287256,141,-0.325195,-0.975586,-0.325195,0.0029,-0.0058,-0.9889
533,54900,0, , , ,-0.325195,0,-0.325195,0.0029,-0.0058,-0.9889
534,55000,0, , , ,0,0,0,0.0029,-0.0058,-0.9918
535,55100,0, , , , , , ,0.0058,-0.0058,-0.9918
536,55199,0, , , ,0,-0.325195,-0.650391,0.0029,-0.0058,-0.9889
537,55300,0, , , ,-0.325195,-0.650391,-0.325195,0.0029,-0.0058,-0.9918
538,55399,0, , , ,-0.325195,-0.325195,0,0.0029,-0.0058,-0.9889
539,55500,0, , , ,-0.325195,-0.325195,0,0.0029,-0.0058,-0.9918
540,55600,0, , , ,-1.625977,0,-0.325195,0.0029,-0.0058,-0.9918
541,55700,0, , , ,0,0,-0.650391,0.0029,-0.0058,-0.9889
542,55799,0,121.501678,31.28727,141,0,-1.300781,-0.325195,0.0029,-0.0058,-0.9918
543,55900,0, , , ,-0.325195,0,0,0.0029,-0.0058,-0.9889
544,56000,0, , , ,0,-0.325195,-0.325195,0.0029,-0.0058,-0.9918
545,56100,0, , , , , , ,0.0029,-0.0058,-0.9918
546,56199,0, , , ,0,0,-0.325195,0.0058,-0.0058,-0.9889
547,56300,0, , , ,0,-0.975586,-0.325195,0.0029,-0.0058,-0.9889
548,56399,0, , , ,-0.325195,0,-0.325195,0.0029,-0.0058,-0.9889
549,56500,0, , , ,-0.325195,-0.325195,-0.325195,0.0029,-0.0058,-0.9918
550,56599,0, , , ,-1.300781,0,0,0.0029,-0.0058,-0.9918
551,56700,0, , , ,0.325195,0,-0.325195,0.0029,-0.0058,-0.9889
552,56799,0,121.501678,31.287233,141,0,-0.650391,0,0.0029,-0.0058,-0.9918
553,56900,0, , , ,0,-0.325195,-0.325195,0.0029,-0.0058,-0.9889
554,57000,0, , , ,0,-0.325195,-0.325195,0.0029,-0.0058,-0.9918
555,57100,0, , , , , , ,0.0029,-0.0058,-0.9889
556,57201,0, , , ,-0.650391,0,0,0.0029,-0.0058,-0.9918
557,57299,0, , , ,0,0,-0.325195,0.0029,-0.0058,-0.9918
558,57400,0, , , ,-0.325195,-0.325195,0,0.0029,-0.0058,-0.9889
559,57499,0, , , ,-0.325195,0,-0.325195,0.0029,-0.0058,-0.9889
560,57600,0, , , ,-0.325195,0,0,0.0029,-0.0058,-0.9889
561,57699,0, , , ,-0.975586,0,0,0.0029,-0.0058,-0.9918
562,57800,0,121.501709,31.287207,141,0.325195,0,-0.650391,0.0029,-0.0058,-0.9918
563,57899,0, , , ,-0.325195,0,0,0.0029,-0.0058,-0.9889
564,58000,0, , , ,-0.325195,-0.325195,-0.325195,0.0029,-0.0058,-0.9918
565,58100,0, , , ,-0.325195,-0.325195,-0.325195,0.0029,-0.0058,-0.9889
566,58200,0, , , , , , ,0.0029,-0.0058,-0.9918
567,58299,0, , , ,0.975586,0,-0.650391,0.0029,-0.0058,-0.9918
568,58400,0, , , ,-0.325195,0,0,0.0029,-0.0058,-0.9918
569,58499,0, , , ,0,0,-0.325195,0.0029,-0.0029,-0.9918
570,58600,0, , , ,-0.325195,0,0,0.0029,-0.0058,-0.9889
571,58699,0, , , ,0,0,-0.325195,0.0029,-0.0058,-0.9918
572,58800,0,121.501709,31.287193,141,0,0,-0.650391,0.0029,-0.0058,-0.9889
573,58899,0, , , ,-0.325195,-0.325195,0,0.0029,-0.0058,-0.9918
574,59000,0, , , ,0,0,-0.325195,0.0029,-0.0058,-0.9918
575,59100,0, , , ,0.650391,-0.325195,-0.325195,0.0029,-0.0058,-0.9889
576,59200,0, , , , , , ,0.0029,-0.0058,-0.9889
577,59299,0, , , ,0,0,-1.300781,0.0029,-0.0058,-0.9918
578,59400,0, , , ,0,0,-0.325195,0.0029,-0.0058,-0.9918
579,59499,0, , , ,-0.325195,0,0,0.0029,-0.0058,-0.9918
580,59600,0, , , ,-0.650391,0,-0.325195,0.0029,-0.0058,-0.9889
581,59699,0, , , ,-0.325195,0,0,0.0029,-0.0058,-0.9889
582,59800,0,121.501709,31.287189,141,0,-0.325195,-1.300781,0.0029,-0.0058,-0.9918
583,59899,0, , , ,-0.325195,0,0,0.0029,-0.0058,-0.9918
584,60000,0, , , ,-0.325195,0,0,0.0029,-0.0058,-0.9918
585,60100,0, , , ,0,0,-0.325195,0.0029,-0.0058,-0.9918
586,60200,0, , , , , , ,0.0029,-0.0058,-0.9918
587,60299,0, , , ,-0.325195,-0.325195,-1.300781,0.0029,-0.0058,-0.9889
588,60400,0, , , ,-0.325195,-0.325195,0,0.0029,-0.0058,-0.9918
589,60499,0, , , ,-0.325195,0,0,0.0029,-0.0058,-0.9889
590,60600,0, , , ,0,0,-0.325195,0.0029,-0.0058,-0.9918
591,60699,0, , , ,-0.650391,0,-0.325195,0.0029,-0.0058,-0.9918
592,60800,0,121.501717,31.287167,141,-0.325195,0,-1.300781,0.0029,-0.0058,-0.9889
593,60899,0, , , ,0,0,0,0.0029,-0.0058,-0.9918
594,61000,0, , , ,-0.650391,0,0,0.0029,-0.0058,-0.9889
595,61100,0, , , ,-0.650391,-0.325195,-0.325195,0.0029,-0.0058,-0.9918
596,61200,0, , , , , , ,0.0029,-0.0058,-0.9918
597,61299,0, , , ,-0.325195,-0.325195,-0.650391,0.0029,-0.0058,-0.9918
598,61400,0, , , ,-0.325195,-0.325195,0,0.0029,-0.0058,-0.9918
599,61499,0, , , ,-0.325195,0,0,0.0029,-0.0058,-0.9889
600,61600,0, , , ,0,-0.325195,-0.325195,0.0029,-0.0058,-0.9918
601,61699,0, , , ,-0.325195,-0.975586,-0.325195,0.0029,-0.0058,-0.9889
602,61800,0,121.501717,31.287144,141,-0.325195,0,-0.325195,0.0029,-0.0058,-0.9918
603,61899,0, , , ,-0.325195,0,0,0.0029,-0.0058,-0.9918
604,62000,0, , , ,-0.325195,0,-0.325195,0.0029,-0.0058,-0.9889
605,62100,0, , , ,0.325195,-0.325195,-0.325195,0.0029,-0.0058,-0.9889
606,62200,0, , , , , , ,0.0029,-0.0058,-0.9918
607,62299,0, , , ,-0.325195,-0.325195,-0.325195,0.0029,-0.0058,-0.9918
608,62400,0, , , ,-0.325195,0,0.325195,0.0029,-0.0058,-0.9918
609,62499,0, , , ,0,0,0,0.0029,-0.0058,-0.9889
610,62600,0, , , ,-0.650391,-0.325195,0,0.0029,-0.0058,-0.9889
611,62699,0, , , ,-0.325195,-0.650391,-0.325195,0.0029,-0.0058,-0.9889
612,62800,0,121.501717,31.287153,141,-0.325195,-0.325195,-0.325195,0.0029,-0.0058,-0.9918
613,62899,0, , , ,-0.650391,0,0.325195,0.0029,-0.0058,-0.9918
614,63000,0, , , ,0,0,-0.325195,0.0058,-0.0058,-0.9889
615,63100,0, , , ,-0.325195,0,0,0.0029,-0.0058,-0.9889
616,63200,0, , , , , , ,0.0029,-0.0058,-0.9889
617,63299,0, , , ,-0.325195,-0.325195,-0.325195,0.0029,-0.0058,-0.9889
618,63400,0, , , ,-0.325195,-0.325195,0,0.0029,-0.0058,-0.9918
619,63499,0, , , ,-0.325195,0,0,0.0029,-0.0058,-0.9918
620,63600,0, , , ,-0.325195,0,-0.325195,0.0029,-0.0058,-0.9918
621,63699,0, , , ,0,0,-0.325195,0.0029,-0.0058,-0.9889
622,63800,0,121.501732,31.287113,141,-0.325195,0,-0.325195,0.0029,-0.0058,-0.9889
623,63899,0, , , ,0,0,0,0.0029,-0.0058,-0.9889
624,64000,0, , , ,-0.325195,0,0,0.0029,-0.0058,-0.9918
625,64100,0, , , ,0,0,0,0.0029,-0.0058,-0.9918
626,64200,0, , , , , , ,0.0029,-0.0058,-0.9889
627,64299,0, , , ,-0.325195,0,-0.325195,0.0029,-0.0058,-0.9918
628,64400,0, , , ,-0.650391,-0.325195,-0.325195,0.0029,-0.0058,-0.9889
629,64499,0, , , ,-0.325195,0,-0.325195,0.0029,-0.0058,-0.9918
630,64600,0, , , ,0,0,-0.325195,0.0029,-0.0058,-0.9918
631,64699,0, , , ,0.975586,0.650391,0,0.0029,-0.0058,-0.9889
632,64800,0,121.501732,31.287113,141,-0.325195,0,-0.325195,0.0029,-0.0058,-0.9918
633,64899,0, , , ,-0.650391,0,0,0.0029,-0.0058,-0.9889
634,65000,0, , , ,-0.325195,0,0,0.0029,-0.0058,-0.9918
635,65100,0, , , ,0,-0.325195,-0.325195,0.0029,-0.0058,-0.9889
636,65200,0, , , , , , ,0.0029,-0.0058,-0.9918
637,65299,0, , , ,-0.325195,-0.325195,-0.325195,0.0029,-0.0058,-0.9918
638,65400,0, , , ,-0.325195,0,-0.325195,0.0029,-0.0058,-0.9918
639,65499,0, , , ,0.325195,0,-0.325195,0.0029,-0.0058,-0.9918
640,65600,0, , , ,0.325195,0,0,0.0029,-0.0058,-0.9889
641,65699,0, , , ,-0.325195,0,-0.325195,0.0029,-0.0058,-0.9889
642,65800,0,121.501747,31.287107,141,0,0,0,0.0029,-0.0058,-0.9889
643,65899,0, , , ,-0.325195,0,0,0.0029,-0.0058,-0.9918
644,66000,0, , , ,-0.325195,0,-0.325195,0.0029,-0.0058,-0.9918
645,66100,0, , , ,0,-0.325195,-0.325195,0.0029,-0.0058,-0.9918
646,66200,0, , , , , , ,0.0029,-0.0058,-0.9889
647,66299,0, , , ,-0.325195,-0.650391,0,0.0029,-0.0058,-0.9889
648,66400,0, , , ,-0.325195,0,-0.325195,0.0029,-0.0058,-0.9918
649,66499,0, , , ,-0.325195,0,-0.325195,0.0029,-0.0058,-0.9918
650,66600,0, , , ,0,-0.325195,-0.325195,0.0029,-0.0058,-0.9918
651,66699,0, , , ,-0.650391,0,-0.325195,0.0029,-0.0058,-0.9889
652,66800,0,121.501732,31.2871,141,-0.325195,-0.650391,0,0.0029,-0.0058,-0.9889
653,66899,0, , , ,-0.325195,0,-0.325195,0.0029,-0.0058,-0.9918
654,67000,0, , , ,-0.325195,0,-0.325195,0.0029,-0.0058,-0.9889
655,67100,0, , , ,-0.650391,-0.325195,-0.325195,0.0029,-0.0058,-0.9918
656,67200,0, , , , , , ,0.0029,-0.0058,-0.9918
657,67299,0, , , ,-0.325195,-0.325195,0,0.0029,-0.0058,-0.9918
658,67400,0, , , ,-0.325195,0,-0.325195,0.0029,-0.0058,-0.9918
659,67499,0, , , ,-0.325195,0,-0.325195,0.0029,-0.0058,-0.9889
660,67600,0, , , ,-0.650391,-0.325195,-0.325195,0.0029,-0.0058,-0.9918
661,67699,0, , , ,-0.325195,0.325195,-0.325195,0.0029,-0.0058,-0.9889
662,67800,0,121.501747,31.2871,141,-0.650391,-0.325195,0,0.0058,-0.0058,-0.9918
663,67899,0, , , ,-0.325195,0,-0.325195,0.0029,-0.0058,-0.9918
664,68000,0, , , ,-0.325195,-0.325195,-0.325195,0.0029,-0.0058,-0.9889
665,68100,0, , , ,-0.325195,-0.325195,0,0.0029,-0.0058,-0.9889
666,68200,0, , , , , , ,0.0029,-0.0058,-0.9918
667,68299,0, , , ,-0.650391,-0.325195,-0.325195,0.0029,-0.0058,-0.9918
668,68400,0, , , ,0,0,0,0.0029,-0.0058,-0.9918
669,68499,0, , , ,-0.325195,0,-0.325195,0.0029,-0.0058,-0.9889
670,68600,0, , , ,-0.650391,-0.325195,-0.325195,0.0029,-0.0058,-0.9918
671,68699,0, , , ,0,0.650391,0.325195,0.0029,-0.0058,-0.9889
672,68800,0,121.501747,31.2871,141,0,0,0,0.0029,-0.0058,-0.9918
673,68899,0, , , ,-0.325195,-0.325195,-0.325195,0.0029,-0.0058,-0.9889
674,69000,0, , , ,-0.325195,0,-0.325195,0.0029,-0.0058,-0.9918
675,69100,0, , , ,-0.650391,-0.325195,0,0.0029,-0.0058,-0.9889
676,69200,0, , , , , , ,0.0029,-0.0058,-0.9889
677,69299,0, , , ,-0.325195,-0.325195,0,0.0029,-0.0058,-0.9918
678,69400,0, , , ,-0.325195,-0.325195,0,0.0029,-0.0058,-0.9889
679,69499,0, , , ,-0.325195,0,-0.325195,0.0029,-0.0058,-0.9889
680,69600,0, , , ,0,0,0,0.0029,-0.0058,-0.9918
681,69699,0, , , ,0.325195,0.325195,0,0.0029,-0.0058,-0.9918
682,69800,0,121.501747,31.28709,141,-0.325195,-0.650391,0,0.0029,-0.0058,-0.9889
683,69899,0, , , ,-0.325195,-0.325195,0,0.0029,-0.0058,-0.9889
684,70000,0, , , ,0,0,-0.325195,0.0029,-0.0058,-0.9918
685,70100,0, , , ,-0.325195,0,0,0.0029,-0.0058,-0.9918
686,70200,0, , , , , , ,0.0029,-0.0058,-0.9918
687,70299,0, , , ,-0.325195,-0.650391,0,0.0029,-0.0058,-0.9918
688,70400,0, , , ,-0.325195,-0.325195,0,0.0029,-0.0058,-0.9918
689,70499,0, , , ,-0.325195,-0.325195,0,0.0029,-0.0058,-0.9918
690,70600,0, , , ,-1.300781,0,-0.325195,0.0029,-0.0058,-0.9889
691,70699,0, , , ,0,0,-0.650391,0.0029,-0.0058,-0.9918
692,70800,0,121.501747,31.287086,141,0,-0.650391,-0.325195,0.0029,-0.0058,-0.9889
693,70899,0, , , ,-0.325195,-0.325195,-0.325195,0.0029,-0.0058,-0.9918
694,71000,0, , , ,-0.325195,-0.325195,-0.325195,0.0029,-0.0058,-0.9918
695,71100,0, , , ,-1.625977,0,-0.325195,0.0029,-0.0058,-0.9918
696,71200,0, , , , , , ,0.0029,-0.0058,-0.9889
697,71299,0, , , ,-0.325195,-0.975586,-0.325195,0.0029,-0.0058,-0.9889
698,71400,0, , , ,-0.325195,-0.325195,-0.650391,0.0029,-0.0058,-0.9918
699,71499,0, , , ,-0.325195,-0.325195,0,0.0029,-0.0058,-0.9918
700,71600,0, , , ,-1.951172,0,-0.325195,0.0029,-0.0058,-0.9918
701,71699,0, , , ,0,0,-0.650391,0.0029,-0.0058,-0.9918
702,71800,0,121.501762,31.287073,141,0.325195,-0.650391,-0.325195,0.0029,-0.0058,-0.9889
703,71899,0, , , ,-0.325195,-0.325195,0,0.0029,-0.0058,-0.9918
704,72000,0, , , ,0,-0.325195,-0.325195,0.0058,-0.0058,-0.9889
705,72100,0, , , ,-1.300781,-0.325195,-0.325195,0.0029,-0.0058,-0.9918
706,72200,0, , , , , , ,0.0029,-0.0058,-0.9918
707,72300,0, , , ,0,-0.650391,0,0.0029,-0.0058,-0.9889
708,72400,0, , , ,0,-0.325195,-0.325195,0.0029,-0.0058,-0.9918
709,72500,0, , , ,-0.325195,-0.325195,-0.325195,0.0029,-0.0058,-0.9889
710,72600,0, , , ,-0.975586,0,0,0.0029,-0.0058,-0.9889
711,72700,0, , , ,0,0,-0.650391,0.0029,-0.0058,-0.9889
712,72800,0,121.501762,31.287056,141,0,-0.325195,0,0.0029,-0.0058,-0.9918
713,72900,0, , , ,-0.325195,0,-0.325195,0.0029,-0.0058,-0.9918
714,73000,0, , , ,-0.325195,0,0,0.0029,-0.0058,-0.9889
715,73100,0, , , ,-1.300781,0,0,0.0029,-0.0058,-0.9918
716,73200,0, , , , , , ,0.0029,-0.0058,-0.9889
717,73299,0, , , ,-0.325195,0,0,0.0029,-0.0058,-0.9889
718,73400,0, , , ,0,0,0,0.0029,-0.0058,-0.9889
719,73499,0, , , ,-0.325195,0,-0.325195,0.0029,-0.0058,-0.9918
720,73600,0, , , ,-0.975586,0,0,0.0029,-0.0058,-0.9918
721,73701,0, , , ,0,0,-0.650391,0.0029,-0.0058,-0.9889
722,73800,0,121.50177,31.287033,141,0,-0.325195,0,0.0029,-0.0058,-0.9918
723,73901,0, , , ,-0.325195,0,-0.325195,0.0029,-0.0058,-0.9889
724,74000,0, , , ,-0.325195,0,-0.325195,0.0029,-0.0058,-0.9918
725,74100,0, , , ,-0.325195,0,0,0.0029,-0.0058,-0.9918
726,74200,0, , , , , , ,0.0029,-0.0058,-0.9918
727,74299,0, , , ,0.325195,0,0.325195,0.0029,-0.0058,-0.9918
728,74400,0, , , ,-0.325195,0,-0.325195,0.0029,-0.0058,-0.9889
729,74499,0, , , ,-0.325195,0,-0.325195,0.0029,-0.0058,-0.9918
730,74600,0, , , ,-0.325195,0,0,0.0029,-0.0058,-0.9889
731,74699,0, , , ,0.325195,-0.325195,-0.975586,0.0029,-0.0029,-0.9889
732,74800,0,121.501785,31.287033,141,-0.325195,0,0,0.0029,-0.0058,-0.9889
733,74899,0, , , ,-0.325195,0,-0.325195,0.0029,-0.0058,-0.9918
734,75000,0, , , ,-0.325195,0,-0.325195,0.0029,-0.0058,-0.9918
735,75100,0, , , ,0,0,0,0.0029,-0.0058,-0.9889
736,75200,0, , , , , , ,0.0029,-0.0058,-0.9889
737,75299,0, , , ,-0.325195,0,0,0.0029,-0.0058,-0.9889
738,75400,0, , , ,-0.325195,0,0,0.0029,-0.0058,-0.9918
739,75499,0, , , ,-0.325195,0,-0.325195,0.0029,-0.0058,-0.9889
740,75600,0, , , ,0,0.325195,0,0.0029,-0.0058,-0.9918
741,75699,0, , , ,-0.325195,-0.325195,-0.650391,0.0029,-0.0058,-0.9918
742,75800,0,121.501816,31.287014,141,-0.325195,0,0,0.0029,-0.0058,-0.9889
743,75899,0, , , ,-0.325195,0,0,0.0029,-0.0058,-0.9918
744,76000,0, , , ,-0.325195,-0.325195,-0.325195,0.0029,-0.0058,-0.9889
745,76100,0, , , ,0,0,0,0.0029,-0.0058,-0.9889
746,76200,0, , , , , , ,0.0029,-0.0058,-0.9918
747,76299,0, , , ,-0.325195,0,0,0.0029,-0.0058,-0.9918
748,76400,0, , , ,-0.325195,0,0,0.0029,-0.0058,-0.9918
749,76499,0, , , ,0,-0.325195,0,0.0029,-0.0058,-0.9889
750,76600,0, , , ,-0.650391,0,0,0.0029,-0.0029,-0.9889
751,76701,0, , , ,0,-0.325195,-0.975586,0.0029,-0.0058,-0.9889
752,76799,0,121.501816,31.287014,141,0,0,-0.325195,0.0029,-0.0058,-0.9918
753,76900,0, , , ,-0.650391,0,0.325195,0.0029,-0.0058,-0.9918
754,77000,0, , , ,-0.650391,0,-0.325195,0.0029,-0.0058,-0.9918
755,77100,0, , , ,-0.650391,-0.325195,-0.325195,0.0029,-0.0058,-0.9918
756,77200,0, , , ,0,-0.975586,-0.325195,0.0058,-0.0058,-0.9889
757,77300,0, , , , , , ,0.0029,-0.0058,-0.9918
758,77399,0, , , ,-0.650391,0,0.325195,0.0029,-0.0058,-0.9889
759,77500,0, , , ,0,0,0,0.0029,-0.0058,-0.9918
760,77599,0, , , ,-0.650391,-0.325195,0,0.0029,-0.0058,-0.9889
761,77700,0, , , ,0,-0.975586,-0.325195,0.0029,-0.0058,-0.9918
762,77800,0,121.501854,31.286987,141,0,0,0,0.0029,-0.0058,-0.9918
763,77899,0, , , ,0.325195,0,-0.325195,0.0029,-0.0058,-0.9918
764,78000,0, , , ,-0.650391,0,0,0.0029,-0.0058,-0.9918
765,78099,0, , , ,-0.325195,0,-0.325195,0.0029,-0.0058,-0.9889
766,78200,0, , , ,-0.325195,-0.325195,-0.325195,0.0029,-0.0029,-0.9918
767,78300,0, , , ,0,-0.650391,-0.325195,0.0029,-0.0058,-0.9889
768,78400,0, , , , , , ,0.0029,-0.0058,-0.9918
769,78499,0, , , ,-0.650391,-0.325195,0,0.0029,-0.0058,-0.9918
770,78600,0, , , ,-0.325195,-0.325195,-0.325195,0.0029,-0.0058,-0.9889
771,78699,0, , , ,0,0,0,0.0029,-0.0058,-0.9918
772,78800,0,121.501854,31.286974,141,-0.325195,-0.325195,-0.325195,0.0029,-0.0058,-0.9889
773,78899,0, , , ,0,-0.325195,-0.325195,0.0029,-0.0058,-0.9918
774,79000,0, , , ,-0.650391,0,0,0.0029,-0.0058,-0.9889
775,79099,0, , , ,-0.325195,0,-0.325195,0.0029,-0.0058,-0.9918
776,79200,0, , , ,-0.325195,0,0,0.0029,-0.0058,-0.9918
777,79300,0, , , ,0,0,-0.325195,0.0029,-0.0058,-0.9918
778,79400,0, , , , , , ,0.0029,-0.0058,-0.9889
779,79499,0, , , ,-0.325195,-0.325195,0,0.0029,-0.0058,-0.9889
780,79600,0, , , ,-0.325195,0,-0.325195,0.0029,-0.0058,-0.9889
781,79699,0, , , ,0,-0.325195,0,0.0029,-0.0058,-0.9889
782,79800,0,121.501854,31.286961,141,-0.325195,0,-0.325195,0.0029,-0.0058,-0.9918
783,79899,0, , , ,0,0,-0.325195,0.0029,-0.0058,-0.9918
784,80000,0, , , ,-0.650391,0,-0.325195,0.0029,-0.0058,-0.9918
785,80099,0, , , ,-0.325195,0,-0.325195,0.0029,-0.0058,-0.9918
786,80200,0, , , ,0,-0.325195,0,0.0029,-0.0058,-0.9889
787,80300,0, , , ,-0.325195,0,-0.325195,0.0029,-0.0058,-0.9918
788,80400,0, , , , , , ,0.0029,-0.0058,-0.9889
789,80499,0, , , ,0,-0.325195,0,0.0029,-0.0058,-0.9918
790,80600,0, , , ,0,0,0,0.0029,-0.0058,-0.9918
791,80699,0, , , ,0,-0.325195,0,0.0029,-0.0058,-0.9889
792,80800,0,121.501854,31.286953,141,0,0.325195,-0.325195,0.0029,-0.0058,-0.9918
793,80899,0, , , ,-0.325195,0,-0.325195,0.0029,-0.0058,-0.9889
794,81000,0, , , ,-0.325195,0,-0.325195,0.0029,-0.0058,-0.9918
795,81099,0, , , ,-0.325195,0,-0.325195,0.0029,-0.0058,-0.9889
796,81200,0, , , ,0,0,-0.325195,0.0029,-0.0058,-0.9918
797,81300,0, , , ,0,0.650391,0,0.0029,-0.0058,-0.9918
798,81400,0, , , , , , ,0.0029,-0.0058,-0.9918
799,81499,0, , , ,-0.325195,0,-0.325195,0.0029,-0.0058,-0.9918
800,81600,0, , , ,0,-0.325195,-0.650391,0.0029,-0.0058,-0.9889
801,81699,0, , , ,0,-0.325195,-0.325195,0.0029,-0.0058,-0.9918
802,81800,0,121.501854,31.286947,141,0,0,-0.325195,0.0029,-0.0058,-0.9889
803,81899,0, , , ,-0.325195,-0.325195,0,0.0029,-0.0029,-0.9889
804,82000,0, , , ,0,0,-0.325195,0.0029,-0.0058,-0.9889
805,82099,0, , , ,0.325195,-0.325195,-0.650391,0.0029,-0.0058,-0.9918
806,82200,0, , , ,-0.650391,-0.325195,-0.325195,0.0029,-0.0058,-0.9918
807,82300,0, , , ,-0.650391,0,-0.325195,0.0029,-0.0058,-0.9889
808,82400,0, , , , , , ,0.0029,-0.0058,-0.9889
809,82499,0, , , ,-0.325195,0,0,0.0029,-0.0058,-0.9889
810,82600,0, , , ,0,-0.325195,-0.325195,0.0029,-0.0058,-0.9889
811,82699,0, , , ,-0.975586,-0.325195,-0.325195,0.0029,-0.0058,-0.9889
812,82800,0,121.501854,31.286953,141,0,0,-0.325195,0.0029,-0.0058,-0.9918
813,82899,0, , , ,-0.325195,-0.650391,0,0.0029,-0.0058,-0.9918
814,83000,0, , , ,0,0,0,0.0029,-0.0058,-0.9889
815,83099,0, , , ,-0.325195,0,-0.650391,0.0029,-0.0029,-0.9918
816,83200,0, , , ,0,-0.325195,0,0.0029,-0.0058,-0.9889
817,83300,0, , , ,0,0.325195,-0.325195,0.0058,-0.0058,-0.9918
818,83400,0, , , , , , ,0.0029,-0.0058,-0.9889
819,83499,0, , , ,-0.325195,0,0,0.0029,-0.0058,-0.9918
820,83600,0, , , ,0,-0.325195,-0.650391,0.0029,-0.0058,-0.9918
821,83699,0, , , ,-0.975586,-0.325195,0,0.0029,-0.0058,-0.9918
822,83800,0,121.501839,31.286953,141,-0.325195,0.325195,0,0.0029,-0.0058,-0.9918
823,83899,0, , , ,-0.650391,-0.325195,0,0.0029,-0.0058,-0.9889
824,84000,0, , , ,-0.325195,-0.325195,-0.325195,0.0029,-0.0058,-0.9918
825,84099,0, , , ,-0.325195,0,-0.650391,0.0058,-0.0058,-0.9889
826,84200,0, , , ,-0.650391,-0.325195,0,0.0029,-0.0058,-0.9918
827,84300,0, , , ,0,1.300781,0.325195,0.0029,-0.0029,-0.9889
828,84400,0, , , , , , ,0.0058,-0.0058,-0.9889
829,84499,0, , , ,-0.325195,-0.325195,-0.325195,0.0029,-0.0058,-0.9889
830,84600,0, , , ,0,0,-0.325195,0.0029,-0.0058,-0.9918
831,84699,0, , , ,-0.325195,-0.325195,0,0.0029,-0.0029,-0.9889
832,84800,0,121.501823,31.286953,141,0,0.975586,0.325195,0.0029,-0.0058,-0.9918
833,84899,0, , , ,-0.650391,-0.325195,0,0.0029,-0.0058,-0.9918
834,85000,0, , , ,-0.325195,0,0,0.0058,-0.0029,-0.9889
835,85100,0, , , ,0,0,-0.325195,0.0029,-0.0058,-0.9918
836,85200,0, , , ,-1.300781,-0.325195,0,0.0029,-0.0058,-0.9889
837,85300,0, , , ,0,0.650391,0,0.0029,-0.0058,-0.9918
838,85400,0, , , , , , ,0,-0.0058,-0.9918
839,85499,0, , , ,-0.325195,-0.325195,0,0.0058,-0.0058,-0.9918
840,85600,0, , , ,-0.325195,-0.325195,-0.325195,0.0029,-0.0029,-0.9918
841,85699,0, , , ,-1.300781,0,-0.325195,0.0029,-0.0058,-0.9889
842,85800,0,121.501823,31.286961,141,0,0,0,0.0058,-0.0058,-0.9889
843,85899,0, , , ,-0.325195,-0.650391,0,0.0029,-0.0029,-0.9889
844,86000,0, , , ,-0.325195,0,0,0.0029,-0.0058,-0.9918
845,86099,0, , , ,-0.325195,0,-0.325195,0.0029,-0.0058,-0.9918
846,86200,0, , , ,-1.625977,0,-0.325195,0.0029,-0.0058,-0.9918
847,86300,0, , , ,0,0,-0.650391,0.0029,-0.0029,-0.9918
848,86400,0, , , , , , ,0.0029,-0.0058,-0.9918
849,86499,0, , , ,-0.325195,-0.325195,-0.325195,0.0029,-0.0058,-0.9918
850,86600,0, , , ,-0.325195,0,-0.325195,0.0029,-0.0058,-0.9889
851,86699,0, , , ,-1.625977,0,-0.325195,0.0029,-0.0058,-0.9889
852,86800,0,121.501823,31.286953,141,0,0,-0.650391,0.0029,-0.0058,-0.9889
853,86899,0, , , ,0,-0.975586,-0.325195,0.0029,-0.0058,-0.9918
854,87000,0, , , ,-0.325195,-0.325195,-0.325195,0.0029,-0.0029,-0.9889
855,87099,0, , , ,-0.325195,-0.325195,0,0.0029,-0.0058,-0.9918
856,87200,0, , , ,-1.300781,0,0,0.0029,-0.0058,-0.9889
857,87300,0, , , ,0,0,-0.650391,0.0029,-0.0029,-0.9918
858,87400,0, , , , , , ,0.0029,-0.0058,-0.9918
859,87499,0, , , ,-0.325195,-0.325195,-0.325195,0.0029,-0.0058,-0.9889
860,87600,0, , , ,-0.325195,-0.325195,-0.325195,0.0029,-0.0029,-0.9889
861,87699,0, , , ,-0.975586,0,0,0.0029,-0.0029,-0.9889
862,87800,0,121.501816,31.286953,141,0,0,-0.650391,0.0029,-0.0058,-0.9918
863,87899,0, , , ,0,-0.325195,0,0.0029,-0.0058,-0.9918
864,88000,0, , , ,-0.325195,-0.325195,-0.325195,0.0029,-0.0058,-0.9918
865,88099,0, , , ,-0.325195,-0.325195,-0.325195,0,-0.0058,-0.9889
866,88200,0, , , ,-0.650391,-0.325195,0,0.0029,-0.0058,-0.9889
867,88300,0, , , ,0.325195,0,-0.650391,0.0029,-0.0029,-0.9889
868,88400,0, , , , , , ,0.0029,-0.0058,-0.9889
869,88499,0, , , ,0.325195,0,-0.325195,0.0029,-0.0058,-0.9918
870,88600,0, , , ,0,0,0,0.0029,-0.0029,-0.9889
871,88699,0, , , ,-0.650391,0,0,0.0029,-0.0058,-0.9889
872,88800,0,121.501816,31.286953,141,0.325195,0,-0.650391,0.0029,-0.0029,-0.9918
873,88899,0, , , ,-0.325195,0,0,0.0029,-0.0029,-0.9918
874,89000,0, , , ,-0.325195,-0.325195,-0.325195,0.0029,-0.0058,-0.9918
875,89099,0, , , ,0,-0.325195,-0.325195,0.0029,-0.0058,-0.9889
876,89200,0, , , ,-0.325195,0,0,0.0029,-0.0058,-0.9918
877,89300,0, , , ,0,-0.325195,-0.650391,0.0029,-0.0058,-0.9889
878,89400,0, , , , , , ,0.0029,-0.0058,-0.9889
879,89499,0, , , ,-0.325195,0,-0.325195,0.0029,-0.0029,-0.9918
880,89600,0, , , ,-0.325195,-0.325195,-0.325195,0.0029,-0.0058,-0.9889
881,89701,0, , , ,0,0,-0.325195,0.0029,-0.0058,-0.9918
882,89799,0,121.501801,31.286934,141,-0.650391,-0.325195,0,0.0029,-0.0058,-0.9889
883,89900,0, , , ,-0.325195,-0.325195,-0.975586,0.0029,-0.0029,-0.9918
884,89999,0, , , ,-0.325195,0,0,0.0029,-0.0058,-0.9889
885,90100,0, , , ,0,0,-0.325195,0.0029,-0.0058,-0.9889
886,90199,0, , , ,-0.325195,0,-0.650391,0.0029,-0.0058,-0.9889
887,90300,0, , , ,-0.325195,0,0,0.0029,-0.0058,-0.9889
888,90400,0, , , ,0,-0.325195,-1.300781,0.0029,-0.0058,-0.9889
889,90500,0, , , , , , ,0.0029,-0.0058,-0.9918
890,90599,0, , , ,0.325195,0,0,0.0029,-0.0058,-0.9889
891,90700,0, , , ,0,0,0,0.0029,-0.0058,-0.9889
892,90799,0,121.50177,31.286966,141,-0.325195,0,0,0.0029,-0.0058,-0.9918
893,90900,0, , , ,-0.325195,-0.325195,-1.951172,0.0058,-0.0058,-0.9889
894,90999,0, , , ,0,0,0,0.0029,-0.0058,-0.9918
895,91100,0, , , ,0,0,0,0.0029,-0.0058,-0.9918
896,91199,0, , , ,-0.325195,0,-0.325195,0.0029,-0.0058,-0.9889
897,91300,0, , , ,-0.325195,0,0,0.0029,-0.0058,-0.9918
898,91400,0, , , ,0.325195,0,-0.650391,0.0029,-0.0058,-0.9889
899,91500,0, , , , , , ,0.0029,-0.0029,-0.9918
900,91599,0, , , ,-0.325195,0,-0.325195,0.0029,-0.0058,-0.9889
901,91700,0, , , ,-0.650391,0,-0.325195,0.0029,-0.0029,-0.9918
902,91799,0,121.501747,31.287006,142,-0.325195,-0.325195,-0.325195,0.0029,-0.0058,-0.9918
903,91900,0, , , ,-0.325195,-0.325195,-0.650391,0.0029,-0.0058,-0.9918
904,91999,0, , , ,-0.325195,0,0,0.0029,-0.0058,-0.9889
905,92100,0, , , ,-0.325195,0,0,0.0029,-0.0058,-0.9918
906,92199,0, , , ,-0.650391,-0.325195,-0.325195,0.0029,-0.0058,-0.9918
907,92300,0, , , ,-0.325195,-0.650391,0,0.0029,-0.0058,-0.9889
908,92400,0, , , ,-0.325195,-0.325195,-0.975586,0.0029,-0.0029,-0.9918
909,92500,0, , , , , , ,0.0029,-0.0058,-0.9889
910,92599,0, , , ,0,0,-0.325195,0.0029,-0.0058,-0.9918
911,92700,0, , , ,-0.650391,-0.325195,-0.325195,0.0029,-0.0058,-0.9918
912,92799,0,121.501732,31.287041,142,-0.325195,-0.650391,-0.325195,0.0029,-0.0029,-0.9918
913,92900,0, , , ,-0.325195,-0.325195,-0.325195,0.0029,-0.0058,-0.9918
914,92999,0, , , ,-0.325195,0,0.325195,0.0029,-0.0058,-0.9918
915,93100,0, , , ,0,0,0,0.0029,-0.0029,-0.9918
916,93199,0, , , ,0,-0.325195,-0.325195,0.0029,-0.0058,-0.9918
917,93300,0, , , ,-0.325195,-0.975586,-0.325195,0.0029,-0.0058,-0.9918
918,93400,0, , , ,-0.325195,-0.325195,-0.325195,0.0029,-0.0058,-0.9889
919,93500,0, , , , , , ,0.0029,-0.0058,-0.9918
920,93599,0, , , ,0,0,0,0.0029,-0.0058,-0.9889
921,93700,0, , , ,-0.325195,0,-0.325195,0.0029,-0.0058,-0.9918
922,93799,0,121.501717,31.287077,142,0.325195,-0.325195,-0.325195,0.0029,-0.0058,-0.9889
923,93900,0, , , ,-0.650391,-0.325195,-0.650391,0.0029,-0.0029,-0.9918
924,93999,0, , , ,-0.325195,0,0.325195,0.0029,-0.0058,-0.9918
925,94100,0, , , ,-0.325195,0,-0.325195,0.0058,-0.0058,-0.9918
926,94199,0, , , ,0,0,0,0.0029,-0.0029,-0.9918
927,94300,0, , , ,0,-0.975586,-0.325195,0.0029,-0.0058,-0.9889
928,94400,0, , , ,0,0,-0.325195,0.0029,-0.0058,-0.9918
929,94500,0, , , , , , ,0.0029,-0.0058,-0.9889
930,94599,0, , , ,0.325195,0,-0.325195,0.0029,-0.0058,-0.9918
931,94700,0, , , ,0,-0.325195,-0.650391,0.0029,-0.0058,-0.9889
932,94799,0,121.501709,31.287081,142,0,0,-0.325195,0.0029,-0.0058,-0.9918
933,94900,0, , , ,-0.325195,0,-0.325195,0.0029,-0.0029,-0.9918
934,94999,0, , , ,0,0,0,0.0029,-0.0058,-0.9918
935,95100,0, , , ,-0.325195,0,0,0.0029,-0.0058,-0.9889
936,95199,0, , , ,0,0,0,0.0029,-0.0029,-0.9889
937,95300,0, , , ,0,0.325195,-0.325195,0.0029,-0.0058,-0.9918
938,95400,0, , , ,-0.325195,0,0,0.0029,-0.0058,-0.9889
939,95500,0, , , , , , ,0.0029,-0.0029,-0.9918
940,95599,0, , , ,-0.325195,0,-0.325195,0.0029,-0.0058,-0.9889
941,95700,0, , , ,0,-0.325195,-0.325195,0.0029,-0.0058,-0.9918
942,95799,0,121.501717,31.287069,142,-0.325195,0,-0.325195,0.0029,-0.0029,-0.9889
943,95900,0, , , ,-0.325195,0,-0.325195,0.0058,-0.0058,-0.9918
944,95999,0, , , ,-0.325195,0,-0.325195,0.0029,-0.0058,-0.9918
945,96100,0, , , ,-0.325195,0,-0.325195,0.0029,-0.0029,-0.9889
946,96199,0, , , ,-0.325195,-0.325195,-0.325195,0.0029,-0.0029,-0.9918
947,96300,0, , , ,-0.325195,0,-0.325195,0.0029,-0.0058,-0.9889
948,96400,0, , , ,-0.325195,0,-0.325195,0.0029,-0.0029,-0.9918
949,96500,0, , , , , , ,0.0029,-0.0029,-0.9889
950,96599,0, , , ,-0.325195,0,-0.325195,0.0029,-0.0058,-0.9918
951,96700,0, , , ,-0.975586,-0.325195,-0.325195,0.0029,-0.0058,-0.9889
952,96799,0,121.501717,31.287067,142,-0.650391,0,-0.650391,0.0029,-0.0029,-0.9889
953,96900,0, , , ,-0.325195,-0.325195,0,0.0029,-0.0058,-0.9918
954,96999,0, , , ,-0.325195,0,-0.325195,0.0029,-0.0058,-0.9918
955,97100,0, , , ,-0.325195,0,-0.325195,0.0029,-0.0029,-0.9918
956,97199,0, , , ,-0.650391,-0.325195,0,0.0029,-0.0058,-0.9918
957,97300,0, , , ,0,0,-0.325195,0.0029,-0.0058,-0.9918
958,97400,0, , , ,0,-0.325195,-0.325195,0.0029,-0.0029,-0.9889
959,97500,0, , , , , , ,0.0029,-0.0058,-0.9918
960,97599,0, , , ,-0.325195,0,-0.325195,0.0029,-0.0058,-0.9889
961,97700,0, , , ,-0.650391,-0.325195,0,0.0029,-0.0058,-0.9889
962,97799,0,121.501717,31.287067,142,0,0,-0.650391,0.0029,-0.0029,-0.9918
963,97900,0, , , ,-0.325195,-0.650391,0,0.0029,-0.0058,-0.9918
964,97999,0, , , ,0,0,0,0.0029,-0.0029,-0.9918
965,98100,0, , , ,0,0,-0.650391,0.0029,-0.0058,-0.9918
966,98199,0, , , ,-0.325195,0,0,0.0029,-0.0058,-0.9918
967,98300,0, , , ,-0.325195,0.325195,-0.325195,0.0029,-0.0058,-0.9889
968,98400,0, , , ,-0.325195,-0.650391,0,0.0029,-0.0029,-0.9918
969,98500,0, , , , , , ,0.0029,-0.0058,-0.9889
970,98599,0, , , ,0.325195,0,-0.325195,0.0029,-0.0058,-0.9918
971,98700,0, , , ,-0.650391,0,0,0.0029,-0.0058,-0.9889
972,98799,0,121.501717,31.287073,142,0,0.650391,0.325195,0.0029,-0.0058,-0.9889
973,98900,0, , , ,0,-0.650391,-0.325195,0.0029,-0.0058,-0.9918
974,98999,0, , , ,-0.325195,0,-0.325195,0.0029,-0.0058,-0.9918
975,99100,0, , , ,-0.325195,0,-0.325195,0.0029,-0.0058,-0.9918
976,99199,0, , , ,-0.975586,0,0,0.0029,-0.0058,-0.9918
977,99300,0, , , ,0,0.650391,0,0.0029,-0.0058,-0.9918
978,99400,0, , , ,-0.325195,-0.325195,0,0.0029,-0.0058,-0.9889
979,99500,0, , , , , , ,0.0029,-0.0058,-0.9918
980,99599,0, , , ,-0.325195,-0.325195,-0.325195,0.0029,-0.0058,-0.9889
981,99700,0, , , ,-0.975586,-0.325195,0,0.0029,-0.0029,-0.9918
982,99799,0,121.501717,31.287073,142,0,0.325195,0,0.0029,-0.0029,-0.9889
983,99900,0, , , ,0,-0.650391,0,0.0029,-0.0058,-0.9918
984,99999,0, , , ,-0.325195,-0.325195,0,0.0029,-0.0058,-0.9889
985,100100,0, , , ,0,0,0,0.0029,-0.0058,-0.9918
986,100199,0, , , ,-1.300781,0,0,0.0029,-0.0029,-0.9918
987,100300,0, , , ,0,0.975586,0,0.0029,-0.0058,-0.9918
988,100400,0, , , ,-0.325195,-0.650391,-0.325195,0.0029,-0.0058,-0.9918
989,100500,0, , , , , , ,0.0029,-0.0058,-0.9889
990,100599,0, , , ,-0.325195,0,-0.325195,0.0029,-0.0029,-0.9918
991,100700,0, , , ,-1.625977,0,-0.325195,0.0029,-0.0029,-0.9889
992,100799,0,121.501678,31.287107,142,0,0.650391,0,0.0029,-0.0058,-0.9918
993,100900,0, , , ,-0.650391,-0.975586,0,0.0029,-0.0029,-0.9889
994,100999,0, , , ,-0.325195,0,0,0.0029,-0.0058,-0.9918
995,101100,0, , , ,-0.325195,0,-0.325195,0.0029,-0.0029,-0.9889
996,101199,0, , , ,-0.650391,0,0,0.0029,-0.0058,-0.9918
997,101300,0, , , ,0,0,-0.975586,0.0029,-0.0058,-0.9918
998,101400,0, , , ,-0.325195,-0.975586,-0.325195,0.0029,-0.0058,-0.9889
999,101500,0, , , , , , ,0.0029,-0.0029,-0.9918
1000,101599,0, , , ,-0.325195,0,0,0.0029,-0.0058,-0.9918
1001,101700,0, , , ,-1.625977,0,-0.325195,0.0029,-0.0029,-0.9918
1002,101799,0,121.501694,31.287086,142,0,-0.325195,-0.650391,0.0029,-0.0058,-0.9918
1003,101900,0, , , ,-0.325195,-0.975586,-0.650391,0.0029,-0.0058,-0.9918
1004,101999,0, , , ,-0.325195,-0.325195,0,0.0029,-0.0058,-0.9889
1005,102100,0, , , ,0,0,-0.325195,0.0029,-0.0058,-0.9918
1006,102199,0, , , ,-0.975586,0,0,0.0029,-0.0058,-0.9889
1007,102300,0, , , ,-0.325195,0,-0.325195,0.0029,-0.0029,-0.9918
1008,102400,0, , , ,-0.325195,-0.650391,-0.325195,0.0029,-0.0029,-0.9918
1009,102500,0, , , , , , ,0.0029,-0.0058,-0.9918
1010,102599,0, , , ,-0.325195,0,-0.325195,0.0029,-0.0029,-0.9889
1011,102700,0, , , ,0,-0.325195,0,0.0029,-0.0058,-0.9918
1012,102799,0,121.501678,31.2871,142,0.325195,0,-0.650391,0.0029,-0.0058,-0.9918
1013,102900,0, , , ,-0.325195,-0.325195,0,0.0029,-0.0058,-0.9889
1014,102999,0, , , ,0,-0.325195,-0.325195,0.0029,-0.0029,-0.9918
1015,103100,0, , , ,-0.325195,0,0,0.0029,-0.0029,-0.9889
1016,103199,0, , , ,0,0,0,0.0029,-0.0058,-0.9918
1017,103300,0, , , ,0,0,-0.325195,0.0029,-0.0029,-0.9918
1018,103400,0, , , ,0,0,0.325195,0.0029,-0.0058,-0.9889
1019,103500,0, , , , , , ,0.0029,-0.0058,-0.9918
1020,103599,0, , , ,-0.325195,-0.325195,0,0.0029,-0.0058,-0.9918
1021,103700,0, , , ,-0.650391,0,0,0.0029,-0.0029,-0.9918
1022,103799,0,121.501678,31.287096,142,0.325195,0,-0.975586,0.0029,-0.0058,-0.9889
1023,103900,0, , , ,0,0,0,0.0029,-0.0058,-0.9918
1024,103999,0, , , ,-0.325195,0,-0.325195,0.0029,-0.0058,-0.9889
1025,104100,0, , , ,-0.325195,-0.325195,-0.325195,0.0029,-0.0058,-0.9918
1026,104199,0, , , ,-0.325195,0,0,0.0029,-0.0029,-0.9889
1027,104300,0, , , ,0.325195,0,-0.650391,0.0029,-0.0058,-0.9918
1028,104400,0, , , ,-0.325195,0,0,0.0029,-0.0058,-0.9918
1029,104500,0, , , , , , ,0.0029,-0.0058,-0.9889
1030,104599,0, , , ,-0.325195,-0.325195,-0.325195,0.0029,-0.0029,-0.9918
1031,104700,0, , , ,-0.650391,0,-0.325195,0.0029,-0.0029,-0.9889
1032,104799,0,121.501678,31.287081,142,0,0,-1.300781,0.0029,-0.0058,-0.9918
1033,104900,0, , , ,-0.325195,-0.325195,0,0.0029,-0.0058,-0.9889
1034,104999,0, , , ,0.325195,0,0,0.0029,-0.0058,-0.9918
1035,105100,0, , , ,-0.325195,0,-0.325195,0.0029,-0.0029,-0.9889
1036,105199,0, , , ,-0.650391,0,-0.325195,0.0029,-0.0058,-0.9918
1037,105300,0, , , ,0.650391,0,-0.975586,0.0029,-0.0058,-0.9918
1038,105400,0, , , ,-0.325195,0,0,0.0029,-0.0058,-0.9889
1039,105500,0, , , , , , ,0.0029,-0.0029,-0.9918
1040,105600,0, , , ,0,0,-0.325195,0.0029,-0.0058,-0.9918
1041,105700,0, , , ,-0.325195,0,0,0.0029,-0.0029,-0.9918
1042,105800,0,121.501678,31.287069,142,-0.325195,-0.325195,-1.300781,0.0029,-0.0058,-0.9889
1043,105900,0, , , ,-0.325195,-0.325195,0,0.0029,-0.0058,-0.9918
1044,106000,0, , , ,-0.325195,0,0,0.0029,-0.0029,-0.9889
1045,106100,0, , , ,-0.325195,-0.325195,-0.325195,0.0029,-0.0029,-0.9918
1046,106200,0, , , ,-0.325195,0,0,0.0029,-0.0058,-0.9889
1047,106300,0, , , ,-0.325195,-0.325195,-1.625977,0.0029,-0.0058,-0.9918
1048,106400,0, , , ,-0.325195,-0.325195,0,0.0029,-0.0058,-0.9918
1049,106500,0, , , , , , ,0.0029,-0.0058,-0.9918
1050,106599,0, , , ,-0.325195,0,0,0.0029,-0.0029,-0.9889
1051,106700,0, , , ,-0.325195,-0.325195,-0.325195,0.0029,-0.0058,-0.9918
1052,106799,0,121.501678,31.287081,142,-0.325195,-0.325195,-1.300781,0.0029,-0.0058,-0.9918
1053,106900,0, , , ,-0.325195,0,0.325195,0.0029,-0.0058,-0.9889
1054,106999,0, , , ,-0.650391,0,0,0.0029,-0.0029,-0.9918
1055,107100,0, , , ,-0.650391,-0.325195,-0.325195,0.0029,-0.0058,-0.9918
1056,107201,0, , , ,-0.325195,-0.650391,-0.325195,0.0029,-0.0029,-0.9918
1057,107300,0, , , ,0,-0.325195,-0.650391,0.0029,-0.0058,-0.9889
1058,107400,0, , , ,-0.650391,0,0.325195,0.0029,-0.0029,-0.9918
1059,107500,0, , , , , , ,0.0029,-0.0058,-0.9889
1060,107600,0, , , ,-0.325195,0,0,0.0029,-0.0029,-0.9918
1061,107701,0, , , ,-0.325195,0,-0.325195,0.0029,-0.0058,-0.9889
1062,107800,0,121.501678,31.287069,142,-0.325195,-0.650391,-0.650391,0.0029,-0.0058,-0.9918
1063,107899,0, , , ,-0.325195,0,-0.325195,0.0029,-0.0058,-0.9918
1064,108000,0, , , ,-0.650391,0,0.325195,0.0029,-0.0058,-0.9889
1065,108099,0, , , ,-0.325195,0,-0.325195,0.0029,-0.0029,-0.9918
1066,108200,0, , , ,-0.650391,-0.325195,-0.325195,0.0029,-0.0058,-0.9889
1067,108299,0, , , ,-0.325195,-0.975586,-0.325195,0.0029,-0.0029,-0.9918
1068,108400,0, , , ,0,-0.325195,-0.325195,0.0029,-0.0058,-0.9889
1069,108500,0, , , ,-0.325195,0,0.325195,0.0029,-0.0058,-0.9918
1070,108600,0, , , , , , ,0.0058,-0.0029,-0.9918
1071,108699,0, , , ,-0.325195,-0.325195,0,0.0029,-0.0029,-0.9889
1072,108800,0,121.501663,31.287077,142,0,-0.325195,-0.325195,0.0029,-0.0058,-0.9918
1073,108899,0, , , ,0,-0.325195,-0.325195,0.0029,-0.0058,-0.9889
1074,109000,0, , , ,0,0,0,0.0029,-0.0029,-0.9918
1075,109099,0, , , ,-0.325195,0,0,0.0029,-0.0058,-0.9889
1076,109200,0, , , ,0,-0.325195,-0.325195,0.0029,-0.0058,-0.9918
1077,109299,0, , , ,0,0,-0.650391,0.0029,-0.0058,-0.9918
1078,109400,0, , , ,-0.325195,0,-0.325195,0.0029,-0.0058,-0.9918
1079,109500,0, , , ,-0.650391,-0.325195,0,0.0029,-0.0058,-0.9889
1080,109600,0, , , , , , ,0.0029,-0.0029,-0.9918
1081,109699,0, , , ,0,0,-0.325195,0.0029,-0.0029,-0.9889
1082,109800,0,121.501663,31.28706,142,0,0,-0.325195,0.0029,-0.0058,-0.9918
1083,109899,0, , , ,0,0,-0.325195,0.0029,-0.0058,-0.9918
1084,110000,0, , , ,-0.325195,0,0,0.0029,-0.0029,-0.9918
1085,110099,0, , , ,0,0,0,0.0029,-0.0058,-0.9918
1086,110200,0, , , ,0,0,0,0.0029,-0.0058,-0.9918
1087,110299,0, , , ,0,0.325195,-0.325195,0.0029,-0.0029,-0.9889
1088,110400,0, , , ,-0.325195,0,-0.325195,0.0029,-0.0029,-0.9918
1089,110500,0, , , ,-0.325195,-0.325195,-0.325195,0.0029,-0.0058,-0.9889
1090,110600,0, , , , , , ,0.0058,-0.0058,-0.9918
1091,110699,0, , , ,0,-0.325195,-0.325195,0.0029,-0.0029,-0.9889
1092,110800,0,121.501663,31.28706,142,-0.325195,0,-0.325195,0.0058,-0.0058,-0.9918
1093,110899,0, , , ,0,0,-0.325195,0.0029,-0.0029,-0.9918
1094,111000,0, , , ,-0.650391,0,-0.325195,0.0029,-0.0029,-0.9889
1095,111099,0, , , ,-0.325195,0,-0.325195,0.0029,-0.0029,-0.9918
1096,111200,0, , , ,0,-0.325195,-0.325195,0.0029,-0.0058,-0.9889
1097,111299,0, , , ,-0.650391,0,-0.325195,0.0029,-0.0029,-0.9918
1098,111400,0, , , ,-0.325195,-0.325195,-0.325195,0.0029,-0.0029,-0.9889
1099,111500,0, , , ,-0.325195,0,-0.325195,0.0029,-0.0058,-0.9918
1100,111600,0, , , , , , ,0.0029,-0.0029,-0.9889
1101,111699,0, , , ,-0.325195,-0.325195,-0.325195,0.0029,-0.0029,-0.9918
1102,111800,0,121.501656,31.287073,142,-0.650391,0,-0.650391,0.0029,-0.0058,-0.9918
1103,111899,0, , , ,-0.325195,-0.325195,0,0.0029,-0.0058,-0.9889
1104,112000,0, , , ,-0.325195,0,0,0.0029,-0.0029,-0.9918
1105,112099,0, , , ,0.975586,-0.325195,-0.325195,0.0058,-0.0058,-0.9889
1106,112200,0, , , ,0,-0.325195,0,0.0029,-0.0058,-0.9889
1107,112299,0, , , ,-0.325195,0,-0.325195,0.0029,-0.0058,-0.9889
1108,112400,0, , , ,-0.325195,-0.650391,0,0.0029,-0.0029,-0.9918
1109,112500,0, , , ,-0.325195,0,-0.325195,0.0029,-0.0058,-0.9889
1110,112600,0, , , , , , ,0.0029,-0.0029,-0.9918
1111,112699,0, , , ,-0.650391,-0.325195,-0.325195,0.0058,-0.0058,-0.9889
1112,112800,0,121.501656,31.287069,142,-0.325195,0.325195,0,0.0029,-0.0058,-0.9918
1113,112899,0, , , ,-0.325195,-0.325195,-0.325195,0.0029,-0.0058,-0.9889
1114,113000,0, , , ,-0.325195,0,-0.325195,0.0029,-0.0029,-0.9918
1115,113099,0, , , ,0,0,-0.325195,0.0029,-0.0029,-0.9889
1116,113200,0, , , ,-0.650391,0,0,0.0029,-0.0029,-0.9918
1117,113299,0, , , ,0,0.325195,-0.325195,0.0029,-0.0029,-0.9889
1118,113400,0, , , ,-0.325195,-0.325195,0,0.0029,-0.0058,-0.9889
1119,113500,0, , , ,-0.325195,0,0,0.0029,-0.0058,-0.9918
1120,113600,0, , , , , , ,0.0029,-0.0058,-0.9889
1121,113699,0, , , ,-0.650391,-0.325195,0,0.0029,-0.0029,-0.9918
1122,113800,0,121.501663,31.287081,142,0,0.975586,0,0.0029,-0.0058,-0.9889
1123,113899,0, , , ,-0.325195,-0.325195,0,0.0029,-0.0029,-0.9918
1124,114000,0, , , ,-0.650391,-0.325195,0,0.0029,-0.0058,-0.9889
1125,114099,0, , , ,-0.325195,0,-0.325195,0.0029,-0.0029,-0.9918
1126,114200,0, , , ,-0.650391,-0.325195,-0.325195,0.0029,-0.0058,-0.9889
1127,114299,0, , , ,0,0.975586,0.325195,0.0029,-0.0029,-0.9918
1128,114400,0, , , ,-0.325195,-0.325195,0,0.0029,-0.0029,-0.9889
1129,114500,0, , , ,-0.325195,0,-0.325195,0.0029,-0.0058,-0.9918
1130,114600,0, , , , , , ,0.0029,-0.0029,-0.9889
1131,114699,0, , , ,-0.975586,0,-0.325195,0.0029,-0.0058,-0.9918
1132,114800,0,121.501678,31.287086,142,0,0.975586,0.325195,0.0029,-0.0058,-0.9889
1133,114899,0, , , ,-0.325195,-0.325195,0.325195,0.0029,-0.0058,-0.9918
1134,115000,0, , , ,-0.325195,0,-0.325195,0.0029,-0.0029,-0.9918
1135,115099,0, , , ,-0.325195,0,-0.325195,0.0029,-0.0058,-0.9889
1136,115200,0, , , ,-0.975586,0,-0.325195,0.0029,-0.0029,-0.9918
1137,115299,0, , , ,0,0.650391,0,0.0029,-0.0058,-0.9889
1138,115400,0, , , ,-0.325195,-0.325195,0,0.0029,-0.0029,-0.9918
1139,115500,0, , , ,0,0,0,0.0029,-0.0029,-0.9889
1140,115600,0, , , , , , ,0.0029,-0.0029,-0.9918
1141,115699,0, , , ,-1.625977,0,0,0.0029,-0.0058,-0.9889
1142,115800,0,121.501678,31.287086,142,0,0,-0.325195,0.0029,-0.0029,-0.9918
1143,115899,0, , , ,-0.325195,-0.650391,0,0.0029,-0.0029,-0.9889
1144,116000,0, , , ,-0.325195,0,-0.325195,0.0029,-0.0058,-0.9889
1145,116099,0, , , ,-0.325195,0,-0.325195,0.0029,-0.0058,-0.9918
1146,116200,0, , , ,-1.300781,0,0,0.0029,-0.0029,-0.9918
1147,116299,0, , , ,0,0,-0.325195,0.0029,-0.0058,-0.9889
1148,116400,0, , , ,0,-0.650391,-0.325195,0.0029,-0.0058,-0.9918
1149,116500,0, , , ,-0.325195,0,-0.325195,0.0029,-0.0029,-0.9889
1150,116600,0, , , , , , ,0.0029,-0.0058,-0.9889
1151,116699,0, , , ,-0.650391,0,-0.325195,0.0029,-0.0029,-0.9918
1152,116800,0,121.501678,31.287081,142,0,0,-0.650391,0.0058,-0.0029,-0.9889
1153,116899,0, , , ,-0.325195,-0.975586,-0.325195,0.0029,-0.0058,-0.9918
1154,117000,0, , , ,-0.325195,0,-0.325195,0.0029,-0.0058,-0.9889
1155,117099,0, , , ,-0.325195,0,-0.325195,0.0029,-0.0029,-0.9918
1156,117200,0, , , ,-0.650391,0,0,0.0029,-0.0029,-0.9889
1157,117299,0, , , ,0,0,-0.325195,0.0029,-0.0029,-0.9918
1158,117400,0, , , ,-0.325195,-0.650391,-0.325195,0.0029,-0.0029,-0.9889
1159,117500,0, , , ,0,0,-0.325195,0.0029,-0.0058,-0.9918
1160,117600,0, , , , , , ,0.0029,-0.0029,-0.9918
1161,117699,0, , , ,-0.650391,0,0,0.0029,-0.0058,-0.9918
1162,117800,0,121.501694,31.287067,142,0,0,-0.325195,0.0029,-0.0029,-0.9889
1163,117899,0, , , ,0,-0.325195,0,0.0029,-0.0058,-0.9889
1164,118000,0, , , ,-0.325195,0,-0.325195,0.0029,-0.0029,-0.9918
1165,118099,0, , , ,0,-0.325195,-0.325195,0.0029,-0.0058,-0.9889
1166,118200,0, , , ,-0.650391,0,0,0.0029,-0.0029,-0.9918
1167,118299,0, , , ,0.650391,-0.325195,-0.650391,0.0029,-0.0058,-0.9918
1168,118400,0, , , ,0,-0.325195,0,0.0029,-0.0058,-0.9918
1169,118500,0, , , ,-0.325195,0,-0.650391,0.0029,-0.0029,-0.9889
1170,118600,0, , , , , , ,0.0029,-0.0029,-0.9918
1171,118699,0, , , ,-0.325195,0,0,0.0029,-0.0058,-0.9889
1172,118800,0,121.501694,31.287081,142,0,0,-0.325195,0.0029,-0.0029,-0.9918
1173,118899,0, , , ,0,-0.325195,0,0.0029,-0.0029,-0.9918
1174,119000,0, , , ,-0.325195,0,0,0.0029,-0.0029,-0.9918
1175,119099,0, , , ,-0.325195,0,-0.325195,0.0029,-0.0029,-0.9889
1176,119200,0, , , ,-0.325195,0,0,0.0029,-0.0058,-0.9918
1177,119299,0, , , ,0,0,-0.650391,0.0029,-0.0029,-0.9889
1178,119400,0, , , ,-0.325195,0,0,0.0029,-0.0029,-0.9918
1179,119500,0, , , ,-0.325195,0,-0.325195,0.0029,-0.0029,-0.9918
1180,119600,0, , , , , , ,0.0029,-0.0058,-0.9889
1181,119699,0, , , ,-0.650391,0,0,0.0029,-0.0029,-0.9918
1182,119800,0,121.501709,31.287073,142,0,-0.325195,-0.975586,0.0029,-0.0029,-0.9918
1183,119899,0, , , ,0,0,0,0.0029,-0.0029,-0.9918
1184,120000,0, , , ,0,0,-0.325195,0.0029,-0.0058,-0.9918
1185,120099,0, , , ,-0.650391,0,-0.325195,0.0029,-0.0029,-0.9918
1186,120200,0, , , ,-0.650391,0,-0.325195,0.0029,-0.0029,-0.9889
1187,120301,0, , , ,0.650391,-0.325195,-1.300781,0.0029,-0.0029,-0.9918
1188,120399,0, , , ,0,0,-0.325195,0.0029,-0.0029,-0.9889
1189,120500,0, , , ,-0.325195,0,0,0.0029,-0.0029,-0.9918
1190,120600,0, , , ,0,0,0,0.0029,-0.0058,-0.9889
1191,120700,0, , , , , , ,0.0029,-0.0029,-0.9918
1192,120799,0,121.501717,31.287081,142,-0.650391,0,-0.325195,0.0029,-0.0029,-0.9918
1193,120900,0, , , ,0,-0.325195,-0.975586,0.0029,-0.0058,-0.9918
1194,120999,0, , , ,-0.325195,0,0,0.0029,-0.0058,-0.9889
1195,121100,0, , , ,-0.325195,0,0,0.0029,-0.0029,-0.9918
1196,121199,0, , , ,-0.650391,-0.325195,-0.325195,0.0029,-0.0029,-0.9889
1197,121300,0, , , ,-0.325195,0,-0.325195,0.0029,-0.0058,-0.9889
1198,121399,0, , , ,-0.325195,-0.325195,-1.625977,0.0029,-0.0029,-0.9889
1199,121500,0, , , ,-0.325195,-0.325195,0,0.0029,-0.0029,-0.9918
1200,121600,0, , , ,-0.325195,0,0,0.0029,-0.0029,-0.9918
1201,121700,0, , , , , , ,0.0029,-0.0058,-0.9889
1202,121799,0,121.501717,31.287094,142,-0.325195,0,0,0.0029,-0.0029,-0.9889
1203,121900,0, , , ,0,-0.325195,-0.975586,0.0029,-0.0058,-0.9889
1204,121999,0, , , ,-0.650391,0,0.325195,0.0029,-0.0029,-0.9918
1205,122100,0, , , ,-0.325195,0,0,0.0029,-0.0058,-0.9889
1206,122199,0, , , ,-0.650391,-0.325195,-0.325195,0.0029,-0.0029,-0.9918
1207,122300,0, , , ,0,-0.650391,0,0.0029,-0.0029,-0.9889
1208,122399,0, , , ,-0.325195,-0.325195,-0.325195,0.0029,-0.0029,-0.9918
1209,122500,0, , , ,-0.650391,0,0.325195,0.0029,-0.0029,-0.9889
1210,122600,0, , , ,0,0,-0.325195,0.0029,-0.0058,-0.9889
1211,122700,0, , , , , , ,0.0029,-0.0029,-0.9918
1212,122799,0,121.501717,31.287113,142,-0.325195,-0.650391,-0.325195,0.0029,-0.0029,-0.9889
1213,122900,0, , , ,-0.325195,-0.325195,-0.325195,0.0029,-0.0058,-0.9918
1214,122999,0, , , ,-0.325195,0,0.325195,0.0029,-0.0058,-0.9889
1215,123100,0, , , ,0,0,0,0.0029,-0.0029,-0.9918
1216,123199,0, , , ,-0.325195,-0.325195,-0.325195,0.0029,-0.0058,-0.9889
1217,123300,0, , , ,0,-0.650391,-0.325195,0.0029,-0.0029,-0.9918
1218,123399,0, , , ,-0.325195,-0.325195,0,0.0029,-0.0058,-0.9889
1219,123500,0, , , ,-0.650391,0,0.325195,0.0029,-0.0029,-0.9918
1220,123600,0, , , ,0,0,-0.325195,0.0029,-0.0058,-0.9889
1221,123700,0, , , , , , ,0.0029,-0.0029,-0.9918
1222,123799,0,121.501717,31.287123,142,0,-0.325195,-0.325195,0.0029,-0.0058,-0.9889
1223,123900,0, , , ,-0.325195,0,-0.325195,0.0029,-0.0029,-0.9918
1224,123999,0, , , ,-0.650391,-0.325195,0,0.0029,-0.0029,-0.9889
1225,124100,0, , , ,-0.325195,0,0,0.0029,-0.0029,-0.9918
1226,124199,0, , , ,0,0,-0.325195,0.0029,-0.0058,-0.9889
1227,124300,0, , , ,0,-0.325195,-0.325195,0.0029,-0.0029,-0.9918
1228,124399,0, , , ,-0.325195,0,-0.325195,0.0029,-0.0029,-0.9889
1229,124500,0, , , ,0,0,0,0.0029,-0.0029,-0.9918
1230,124600,0, , , ,-0.325195,0,0,0.0029,-0.0058,-0.9918
1231,124700,0, , , , , , ,0.0029,-0.0058,-0.9918
1232,124799,0,121.501717,31.287136,142,0,0,-0.325195,0.0029,-0.0029,-0.9889
1233,124900,0, , , ,-0.325195,0,-0.325195,0.0029,-0.0029,-0.9918
1234,124999,0, , , ,-0.650391,0,0,0.0029,-0.0058,-0.9918
1235,125100,0, , , ,-0.325195,0,-0.325195,0.0029,-0.0029,-0.9889
1236,125199,0, , , ,0,-0.325195,-0.325195,0.0029,-0.0029,-0.9889
1237,125300,0, , , ,0,0,-0.325195,0.0029,-0.0058,-0.9918
1238,125399,0, , , ,-0.325195,0,-0.325195,0.0029,-0.0029,-0.9918
1239,125500,0, , , ,0,0,0,0.0029,-0.0058,-0.9889
1240,125600,0, , , ,-0.325195,0,-0.325195,0.0029,-0.0029,-0.9918
1241,125700,0, , , , , , ,0.0029,-0.0029,-0.9889
1242,125799,0,121.501709,31.287153,142,-0.325195,0,-0.325195,0.0029,-0.0029,-0.9918
1243,125900,0, , , ,-0.325195,0,-0.325195,0.0029,-0.0058,-0.9889
1244,125999,0, , , ,-0.325195,0,0,0.0029,-0.0029,-0.9889
1245,126100,0, , , ,-0.325195,0,0,0.0029,-0.0029,-0.9889
1246,126199,0, , , ,0,0,-0.325195,0.0029,-0.0029,-0.9918
1247,126300,0, , , ,0.325195,0,-0.325195,0.0029,-0.0058,-0.9889
1248,126399,0, , , ,-0.325195,0,-0.325195,0.0029,-0.0029,-0.9918
1249,126500,0, , , ,-0.325195,0,-0.325195,0.0029,-0.0029,-0.9889
1250,126600,0, , , ,-0.325195,0,-0.325195,0.0029,-0.0058,-0.9889
1251,126700,0, , , , , , ,0.0029,-0.0029,-0.9918
1252,126799,0,121.501694,31.28717,142,-0.650391,0,-0.325195,0.0029,-0.0029,-0.9918
1253,126900,0, , , ,-0.325195,-0.325195,-0.325195,0.0029,-0.0029,-0.9889
1254,126999,0, , , ,-0.325195,0,-0.325195,0.0029,-0.0058,-0.9918
1255,127100,0, , , ,0,0,-0.325195,0.0029,-0.0029,-0.9918
1256,127199,0, , , ,-0.325195,-0.325195,0,0.0029,-0.0029,-0.9889
1257,127300,0, , , ,-0.650391,0,-0.325195,0.0029,-0.0029,-0.9918
1258,127399,0, , , ,-0.325195,0,-0.325195,0.0029,-0.0029,-0.9889
1259,127500,0, , , ,-0.325195,0,0,0.0029,-0.0029,-0.9918
1260,127600,0, , , ,0,0,-0.325195,0.0029,-0.0058,-0.9889
1261,127700,0, , , , , , ,0.0029,-0.0029,-0.9918
1262,127799,0,121.501678,31.287188,142,-0.325195,0,-0.325195,0.0029,-0.0058,-0.9918
1263,127900,0, , , ,0,0,-0.325195,0.0029,-0.0029,-0.9918
1264,127999,0, , , ,-0.650391,0,-0.325195,0.0029,-0.0029,-0.9889
1265,128100,0, , , ,0.325195,0,0,0.0029,-0.0058,-0.9918
1266,128199,0, , , ,-0.325195,0,-0.325195,0.0058,-0.0029,-0.9889
1267,128300,0, , , ,-0.325195,0,0,0.0029,-0.0029,-0.9918
1268,128399,0, , , ,-0.325195,0,-0.325195,0.0029,-0.0058,-0.9889
1269,128500,0, , , ,-0.325195,-0.325195,0,0.0029,-0.0029,-0.9918
1270,128600,0, , , ,-0.325195,0,-0.325195,0.0029,-0.0029,-0.9918
1271,128700,0, , , , , , ,0.0029,-0.0058,-0.9918
1272,128799,0,121.501678,31.287193,142,-0.325195,0,-0.325195,0.0029,-0.0029,-0.9889
1273,128900,0, , , ,0,0,-0.325195,0.0029,-0.0029,-0.9918
1274,128999,0, , , ,-0.325195,0,-0.325195,0.0029,-0.0058,-0.9889
1275,129100,0, , , ,0.325195,0,-0.325195,0.0029,-0.0058,-0.9918
1276,129199,0, , , ,-0.325195,0,-0.325195,0.0029,-0.0029,-0.9918
1277,129300,0, , , ,-0.325195,0,-0.325195,0.0058,-0.0029,-0.9889
1278,129399,0, , , ,0,0,0,0,-0.0058,-0.9918
1279,129500,0, , , ,-0.325195,-0.325195,-0.325195,0.0029,-0.0058,-0.9918
1280,129600,0, , , ,0,0,-0.325195,0.0029,-0.0029,-0.9889
1281,129700,0, , , , , , ,0.0029,-0.0029,-0.9918
1282,129799,0,121.501678,31.28721,142,-0.325195,0,0,0.0029,-0.0029,-0.9889
1283,129900,0, , , ,-0.325195,-0.325195,-0.325195,0.0029,-0.0058,-0.9918
1284,129999,0, , , ,-0.325195,0,-0.325195,0.0029,-0.0029,-0.9918
1285,130100,0, , , ,0,0,-0.325195,0.0029,-0.0029,-0.9889
1286,130199,0, , , ,-0.650391,0,-0.325195,0.0029,-0.0029,-0.9918
1287,130300,0, , , ,-0.325195,0,0,0.0029,-0.0029,-0.9889
1288,130399,0, , , ,0,0,-0.325195,0.0029,-0.0029,-0.9918
1289,130500,0, , , ,-0.325195,-0.325195,-0.325195,0.0029,-0.0058,-0.9889
1290,130600,0, , , ,0,-0.325195,-0.325195,0.0029,-0.0029,-0.9918
1291,130700,0, , , , , , ,0.0029,-0.0058,-0.9889
1292,130799,0,121.501678,31.287207,142,-0.325195,0,-0.325195,0.0029,-0.0029,-0.9918
1293,130900,0, , , ,-0.325195,0,0,0.0029,-0.0029,-0.9889
1294,130999,0, , , ,-0.325195,-0.325195,-0.325195,0.0029,-0.0029,-0.9918
1295,131100,0, , , ,-0.325195,0,-0.325195,0.0058,-0.0058,-0.9889
1296,131199,0, , , ,-0.325195,0,0,0.0029,-0.0029,-0.9918
1297,131300,0, , , ,0,0,0,0.0029,-0.0029,-0.9918
1298,131399,0, , , ,0,0,0,0.0029,-0.0029,-0.9918
1299,131500,0, , , ,-0.325195,0,-0.325195,0.0029,-0.0029,-0.9889
1300,131600,0, , , ,-0.325195,0,-0.650391,0.0029,-0.0029,-0.9918
1301,131700,0, , , , , , ,0.0029,-0.0058,-0.9918
1302,131799,0,121.501678,31.287216,142,-0.325195,-0.325195,-0.325195,0.0029,-0.0058,-0.9918
1303,131900,0, , , ,-0.325195,-0.325195,-0.325195,0.0029,-0.0029,-0.9889
1304,131999,0, , , ,-0.325195,0,0,0.0029,-0.0058,-0.9918
1305,132100,0, , , ,-0.325195,0,-0.325195,0.0029,-0.0029,-0.9918
1306,132199,0, , , ,-0.325195,0,0,0.0029,-0.0029,-0.9889
1307,132300,0, , , ,0,0,-0.325195,0.0029,-0.0058,-0.9918
1308,132399,0, , , ,0,0,0,0.0029,-0.0029,-0.9889
1309,132500,0, , , ,-0.650391,-0.325195,0,0,0,-0.9918
1310,132600,0, , , ,-0.325195,-0.325195,-0.325195,0.0029,-0.0087,-0.9918
1311,132700,0, , , , , , ,0.0058,-0.0029,-0.9918
1312,132799,0,121.501656,31.287228,142,0,0,0,0.0029,0,-0.9889
1313,132900,0, , , ,-0.325195,0,0,0.0029,-0.0058,-0.9918
1314,132999,0, , , ,-0.325195,0,-0.325195,0.0029,-0.0058,-0.9889
1315,133100,0, , , ,-0.325195,0,0,0.0029,-0.0029,-0.9918
1316,133199,0, , , ,0,0,0,0.0029,-0.0029,-0.9889
1317,133300,0, , , ,-0.325195,0,-0.325195,0.0029,-0.0058,-0.9918
1318,133399,0, , , ,-0.325195,0,0,0.0029,-0.0029,-0.9889
1319,133500,0, , , ,-0.325195,-0.325195,0,0.0029,-0.0029,-0.9918
1320,133600,0, , , ,0,0,0,0.0029,-0.0058,-0.9889
1321,133700,0, , , , , , ,0.0029,-0.0029,-0.9918
1322,133799,0,121.501663,31.287233,142,-0.325195,0,-0.325195,0.0029,-0.0029,-0.9889
1323,133900,0, , , ,0,-0.325195,-0.325195,0.0029,-0.0029,-0.9918
1324,133999,0, , , ,0,0,0,0.0029,-0.0058,-0.9889
1325,134100,0, , , ,0,0,-0.325195,0.0029,-0.0029,-0.9918
1326,134199,0, , , ,0,0,0,0.0029,-0.0029,-0.9918
1327,134300,0, , , ,-0.325195,0,-0.325195,0.0029,-0.0058,-0.9918
1328,134399,0, , , ,-0.325195,0,0,0.0029,-0.0029,-0.9889
1329,134500,0, , , ,-0.325195,-0.325195,0,0.0029,-0.0029,-0.9918
1330,134600,0, , , ,0,0,-0.325195,0.0029,-0.0058,-0.9889
1331,134700,0, , , , , , ,0.0029,-0.0029,-0.9918
1332,134799,0,121.501663,31.28723,142,-0.325195,0,-0.325195,0.0029,-0.0029,-0.9918
1333,134900,0, , , ,0,0,-0.325195,0.0029,-0.0058,-0.9889
1334,134999,0, , , ,0,0,-0.325195,0.0029,-0.0029,-0.9918
1335,135100,0, , , ,-0.325195,0,-0.325195,0.0029,-0.0029,-0.9889
1336,135199,0, , , ,-0.325195,0,0,0.0029,-0.0029,-0.9918
1337,135300,0, , , ,-0.325195,0,-0.325195,0.0029,-0.0029,-0.9889
1338,135399,0, , , ,-0.325195,0,-0.325195,0.0029,-0.0029,-0.9918
1339,135500,0, , , ,0,0,-0.325195,0.0029,-0.0029,-0.9889
1340,135600,0, , , ,-0.325195,0,-0.325195,0.0029,-0.0029,-0.9918
1341,135700,0, , , , , , ,0.0029,-0.0029,-0.9889
1342,135799,0,121.501678,31.28722,142,-0.325195,0,0,0.0029,-0.0029,-0.9918
1343,135900,0, , , ,0,0,-0.325195,0.0029,-0.0058,-0.9889
1344,135999,0, , , ,-0.325195,0,-0.325195,0.0029,-0.0029,-0.9918
1345,136100,0, , , ,0,-0.325195,-0.325195,0.0029,-0.0029,-0.9918
1346,136199,0, , , ,-0.325195,-0.325195,-0.325195,0.0029,-0.0029,-0.9918
1347,136300,0, , , ,-0.325195,0,0,0.0029,-0.0029,-0.9918
1348,136399,0, , , ,0.325195,0,0,0.0029,-0.0029,-0.9918
1349,136500,0, , , ,-0.325195,0,-0.325195,0.0029,-0.0058,-0.9889
1350,136600,0, , , ,-0.325195,0,-0.325195,0.0029,-0.0029,-0.9918
1351,136700,0, , , , , , ,0.0029,-0.0029,-0.9889
1352,136799,0,121.501678,31.287201,142,-0.325195,0,-0.325195,0.0029,-0.0058,-0.9918
1353,136900,0, , , ,-0.325195,0,0,0.0029,-0.0029,-0.9889
1354,136999,0, , , ,-0.325195,0,-0.325195,0.0029,-0.0058,-0.9918
1355,137100,0, , , ,-0.325195,-0.325195,-0.325195,0.0029,-0.0058,-0.9889
1356,137199,0, , , ,0,0,0,0.0029,-0.0029,-0.9918
1357,137300,0, , , ,-0.650391,-0.325195,-0.325195,0.0029,-0.0029,-0.9918
1358,137399,0, , , ,-0.325195,0,0,0.0029,-0.0058,-0.9918
1359,137500,0, , , ,-0.325195,0,0,0.0029,-0.0029,-0.9918
1360,137600,0, , , ,-0.650391,-0.325195,0,0.0029,-0.0029,-0.9889
1361,137700,0, , , , , , ,0.0029,-0.0058,-0.9918
1362,137799,0,121.501678,31.287197,142,-0.325195,0,0,0.0029,-0.0029,-0.9918
1363,137900,0, , , ,-0.325195,0,0,0.0058,-0.0058,-0.9889
1364,137999,0, , , ,-0.325195,0,-0.325195, , , 
1365,138099,0, , , ,-0.325195,0,-0.325195,0,-0.0029,-0.9918
1366,138200,0, , , ,-0.325195,0,0,0.0058,-0.0058,-0.9889
1367,138299,0, , , ,-0.650391,0,-0.325195,0.0029,-0.0058,-0.9918
1368,138400,0, , , ,0,-0.325195,0,0,-0.0029,-0.9889
1369,138500,0, , , ,-0.325195,0,0,0.0058,-0.0029,-0.9889
1370,138600,0, , , ,0,0,-0.325195,0.0029,-0.0058,-0.9918
1371,138700,0, , , ,-0.650391,-0.325195,-0.325195,0.0029,-0.0029,-0.9889
1372,138800,0,121.501694,31.287188,142, , , ,0.0029,-0.0029,-0.9918
1373,138900,0, , , ,-0.650391,0,-0.325195,0,-0.0029,-0.9918
1374,139000,0, , , ,-0.325195,0,0,0.0058,-0.0058,-0.9889
1375,139100,0, , , ,-0.325195,0,0,0.0029,-0.0029,-0.9918
1376,139200,0, , , ,-0.325195,0,0,0.0029,-0.0029,-0.9889
1377,139300,0, , , ,-0.325195,0,0,0.0029,-0.0029,-0.9918
1378,139400,0, , , ,-0.650391,0,-0.325195,0.0029,-0.0029,-0.9889
1379,139500,0, , , ,-0.325195,0,0,0.0029,-0.0029,-0.9918
1380,139600,0, , , ,0,0,0,0.0029,-0.0029,-0.9889
1381,139700,0, , , ,-0.325195,-0.325195,-0.325195,0.0029,-0.0058,-0.9918
1382,139800,0,121.501717,31.287161,142, , , ,0.0029,-0.0029,-0.9889
1383,139899,0, , , ,-0.325195,0,0,0.0029,-0.0029,-0.9918
1384,140000,0, , , ,-0.325195,0,-0.325195,0.0029,-0.0058,-0.9918
1385,140099,0, , , ,-0.325195,0,0,0.0029,-0.0029,-0.9918
1386,140200,0, , , ,-0.650391,-0.325195,-0.325195,0.0029,-0.0029,-0.9889
1387,140301,0, , , ,0,0,-0.325195,0.0029,-0.0058,-0.9918
1388,140400,0, , , ,-0.650391,0,-0.325195,0.0029,-0.0029,-0.9918
1389,140499,0, , , ,-0.650391,0,-0.325195,0.0029,-0.0029,-0.9918
1390,140600,0, , , ,-0.325195,0,-0.325195,0.0029,-0.0029,-0.9918
1391,140700,0, , , ,0,0,0,0.0029,-0.0029,-0.9918
1392,140800,0,121.501717,31.287148,142, , , ,0.0029,-0.0029,-0.9918
1393,140899,0, , , ,-0.325195,0,-0.325195,0.0029,-0.0029,-0.9918
1394,141000,0, , , ,-0.325195,0,0,0.0029,-0.0029,-0.9889
1395,141099,0, , , ,-0.325195,0,0,0.0029,-0.0029,-0.9918
1396,141200,0, , , ,-0.325195,-0.325195,-0.325195,0.0029,-0.0029,-0.9918
1397,141299,0, , , ,-0.325195,0,-0.650391,0.0029,-0.0058,-0.9918
1398,141400,0, , , ,-0.325195,0,0,0.0029,-0.0029,-0.9918
1399,141499,0, , , ,-0.325195,0,-0.325195,0.0029,-0.0029,-0.9918
1400,141600,0, , , ,-0.325195,0,-0.325195,0.0029,-0.0029,-0.9918
1401,141700,0, , , ,-0.325195,-0.325195,-0.325195,0.0029,-0.0058,-0.9918
1402,141800,0,121.501732,31.287127,142, , , ,0.0029,-0.0029,-0.9889
1403,141899,0, , , ,0,-0.325195,0,0.0029,-0.0029,-0.9918
1404,142000,0, , , ,-0.650391,0,-0.325195,0.0029,-0.0058,-0.9918
1405,142099,0, , , ,-0.325195,0,-0.325195,0.0058,-0.0029,-0.9889
1406,142200,0, , , ,-0.325195,-0.325195,-0.325195,0.0029,-0.0029,-0.9918
1407,142299,0, , , ,-0.325195,0,-0.325195,0.0029,-0.0058,-0.9918
1408,142400,0, , , ,-0.325195,-0.325195,-0.325195,0.0029,-0.0029,-0.9918
1409,142499,0, , , ,-0.650391,0,-0.325195,0.0029,-0.0029,-0.9889
1410,142600,0, , , ,0.325195,0,-0.325195,0.0029,-0.0029,-0.9918
1411,142700,0, , , ,-0.325195,-0.325195,0,0.0029,-0.0058,-0.9889
1412,142800,0,121.501732,31.287117,142, , , ,0.0029,-0.0029,-0.9918
1413,142899,0, , , ,-0.325195,-0.325195,-0.325195,0.0029,-0.0029,-0.9918
1414,143000,0, , , ,-0.650391,-0.325195,-0.325195,0.0029,-0.0029,-0.9918
1415,143099,0, , , ,-0.325195,0,-0.325195,0.0029,-0.0029,-0.9889
1416,143200,0, , , ,-0.325195,0,0,0.0029,-0.0029,-0.9918
1417,143299,0, , , ,-0.325195,0,-0.325195,0.0029,-0.0029,-0.9889
1418,143400,0, , , ,0.650391,-0.325195,-0.325195,0.0029,-0.0029,-0.9918
1419,143499,0, , , ,-0.325195,0,-0.325195,0.0029,-0.0029,-0.9889
1420,143600,0, , , ,-0.325195,0,-0.325195,0.0029,-0.0029,-0.9918
1421,143700,0, , , ,-0.650391,-0.325195,0,0.0029,-0.0058,-0.9889
1422,143800,0,121.501747,31.287104,142, , , ,0.0029,-0.0029,-0.9918
1423,143899,0, , , ,-0.650391,0,-0.325195,0.0029,-0.0029,-0.9918
1424,144000,0, , , ,-0.650391,-0.325195,-0.325195,0.0029,-0.0029,-0.9918
1425,144099,0, , , ,-0.325195,0,-0.325195,0.0029,-0.0029,-0.9889
1426,144200,0, , , ,-0.325195,0,0,0.0029,-0.0029,-0.9918
1427,144300,0, , , ,-0.650391,0,-0.325195,0.0029,-0.0029,-0.9889
1428,144400,0, , , ,-0.325195,0,0,0,-0.0029,-0.9918
1429,144499,0, , , ,-0.325195,-0.325195,-0.325195,0.0029,-0.0029,-0.9918
1430,144600,0, , , ,-0.325195,0,-0.325195,0.0029,-0.0029,-0.9918
1431,144700,0, , , ,-0.325195,0,-0.325195,0.0029,-0.0029,-0.9918
1432,144800,0,121.501747,31.287094,142, , , ,0.0029,-0.0029,-0.9918
1433,144899,0, , , ,-0.325195,0,-0.325195,0.0029,-0.0058,-0.9918
1434,145000,0, , , ,0,-0.325195,-0.325195,0.0029,-0.0029,-0.9918
1435,145099,0, , , ,-0.325195,-0.325195,-0.650391,0.0029,-0.0029,-0.9889
1436,145200,0, , , ,-0.325195,0,-0.325195,0.0029,-0.0029,-0.9918
1437,145299,0, , , ,-0.325195,0,0,0.0029,-0.0029,-0.9889
1438,145400,0, , , ,-0.325195,-0.325195,-0.325195,0.0029,-0.0029,-0.9918
1439,145499,0, , , ,0,0,-0.325195,0.0029,-0.0029,-0.9889
1440,145600,0, , , ,-0.325195,-0.325195,-0.650391,0.0029,-0.0029,-0.9918
1441,145700,0, , , ,-0.325195,0,0,0.0029,-0.0029,-0.9918
1442,145800,0,121.501747,31.287083,142, , , ,0.0029,-0.0029,-0.9918
1443,145899,0, , , ,-0.325195,-0.325195,-0.325195,0.0029,-0.0029,-0.9889
1444,146000,0, , , ,-0.325195,-0.325195,-0.325195,0.0029,-0.0029,-0.9918
1445,146099,0, , , ,0,-0.325195,0,0.0029,-0.0029,-0.9918
1446,146200,0, , , ,-0.325195,0,-0.325195,0.0029,-0.0029,-0.9918
1447,146299,0, , , ,-0.325195,-0.325195,-0.325195,0.0029,-0.0029,-0.9889
1448,146400,0, , , ,-0.325195,-0.325195,-0.325195,0.0029,-0.0029,-0.9918
1449,146500,0, , , ,-0.325195,0,-0.325195,0.0029,-0.0029,-0.9889
1450,146599,0, , , ,0,0,0,0.0029,-0.0029,-0.9918
1451,146700,0, , , ,0,0,-0.325195,0.0029,-0.0029,-0.9918
1452,146800,0,121.501762,31.287073,142,-0.325195,0,0,0.0029,-0.0029,-0.9918
1453,146900,0, , , , , , ,0.0029,-0.0029,-0.9889
1454,146999,0, , , ,-0.325195,-0.325195,-0.325195,0.0029,-0.0029,-0.9918
1455,147100,0, , , ,-0.325195,0,-0.325195,0.0029,-0.0029,-0.9889
1456,147199,0, , , ,-0.325195,0,0,0.0029,-0.0029,-0.9918
1457,147300,0, , , ,-0.325195,0,0,0.0029,-0.0029,-0.9889
1458,147399,0, , , ,-0.325195,0,-0.325195,0.0029,-0.0029,-0.9918
1459,147500,0, , , ,-0.325195,-0.325195,-0.325195,0.0029,-0.0029,-0.9918
1460,147599,0, , , ,-0.325195,-0.325195,-0.325195,0.0029,-0.0029,-0.9918
1461,147700,0, , , ,-0.325195,0,0,0.0029,-0.0029,-0.9918
1462,147800,0,121.501747,31.287073,142,-0.325195,0,0,0.0029,-0.0029,-0.9918
1463,147900,0, , , , , , ,0.0029,-0.0029,-0.9889
1464,147999,0, , , ,-0.325195,0,0,0.0029,-0.0029,-0.9918
1465,148100,0, , , ,-0.325195,-0.325195,0,0.0029,-0.0029,-0.9918
1466,148199,0, , , ,0,0,0,0.0029,-0.0029,-0.9918
1467,148300,0, , , ,-0.325195,0,0,0.0029,-0.0029,-0.9918
1468,148399,0, , , ,-0.650391,0,-0.325195,0.0029,-0.0029,-0.9918
1469,148500,0, , , ,-0.325195,0,0,0.0029,-0.0029,-0.9918
1470,148599,0, , , ,-0.650391,-0.325195,-0.325195,0.0029,-0.0029,-0.9889
1471,148700,0, , , ,-0.325195,-0.325195,-0.325195,0.0029,-0.0029,-0.9918
1472,148800,0,121.501747,31.287073,142,-0.325195,0,0,0.0029,-0.0029,-0.9918
1473,148900,0, , , , , , ,0.0029,-0.0029,-0.9918
1474,148999,0, , , ,-0.325195,0,-0.325195,0.0029,-0.0029,-0.9918
1475,149100,0, , , ,-0.325195,0,-0.325195,0.0029,-0.0029,-0.9918
1476,149199,0, , , ,0,0,0,0.0029,-0.0029,-0.9918
1477,149300,0, , , ,-0.325195,0,0,0.0029,-0.0029,-0.9918
1478,149399,0, , , ,0,-0.325195,-0.325195,0.0029,-0.0029,-0.9918
1479,149500,0, , , ,-0.325195,-0.325195,-0.325195,0.0029,-0.0029,-0.9918
1480,149599,0, , , ,-0.325195,-0.325195,-0.325195,0.0029,-0.0029,-0.9918
1481,149700,0, , , ,-0.325195,0,0,0.0029,-0.0029,-0.9889
1482,149800,0,121.501747,31.287069,142,0,0,0,0.0029,-0.0029,-0.9918
1483,149900,0, , , , , , ,0.0029,-0.0029,-0.9889
1484,149999,0, , , ,-0.650391,0,-0.325195,0.0029,-0.0029,-0.9889
1485,150100,0, , , ,0,-0.325195,0,0.0029,-0.0029,-0.9889
1486,150199,0, , , ,0,0,0,0.0029,-0.0029,-0.9889
1487,150300,0, , , ,-0.325195,0,-0.325195,0.0029,-0.0029,-0.9889
1488,150399,0, , , ,-0.325195,0,-0.325195,0.0029,-0.0029,-0.9918
1489,150500,0, , , ,-0.325195,0,-0.325195,0.0029,-0.0029,-0.9889
1490,150599,0, , , ,-0.325195,0,-0.325195,0.0029,-0.0029,-0.9918
1491,150700,0, , , ,-0.325195,0,0,0.0029,-0.0029,-0.9918
1492,150800,0,121.501747,31.287067,142,-0.325195,0,0,0.0029,-0.0029,-0.9889
1493,150900,0, , , , , , ,0.0029,-0.0029,-0.9918
1494,151001,0, , , ,0,0,-0.325195,0.0029,-0.0029,-0.9889
1495,151099,0, , , ,0,-0.325195,-0.325195,0.0029,-0.0029,-0.9889
1496,151200,0, , , ,-0.325195,0,0,0.0029,-0.0029,-0.9918
1497,151299,0, , , ,0,0,-0.325195,0.0029,-0.0029,-0.9918
1498,151400,0, , , ,-0.325195,0,0,0.0058,-0.0058,-0.9889
1499,151499,0, , , ,-0.325195,0,-0.650391,0,-0.0029,-0.9918
1500,151600,0, , , ,-0.325195,0,-0.325195,0.0058,-0.0029,-0.9918
1501,151699,0, , , ,-0.325195,0,-0.325195,0,-0.0029,-0.9889
1502,151800,0,121.501732,31.287067,142,-0.325195,0,-0.325195,0.0029,-0.0058,-0.9947
1503,151900,0, , , ,-0.325195,0,0,0.0029,-0.0029,-0.9889
1504,152000,0, , , , , , ,0.0029,-0.0029,-0.9918
1505,152099,0, , , ,-0.650391,0,0,0.0029,-0.0029,-0.9889
1506,152200,0, , , ,-0.325195,0,-0.325195,0.0058,-0.0058,-0.9889
1507,152299,0, , , ,-0.325195,0,-0.325195,0.0029,-0.0029,-0.9918
1508,152400,0, , , ,-0.325195,0,-0.325195,0.0029,-0.0029,-0.9889
1509,152499,0, , , ,-0.325195,0,-0.325195,0.0058,-0.0029,-0.9918
1510,152600,0, , , ,-0.325195,0,-0.325195,0,-0.0029,-0.9918
1511,152699,0, , , ,-0.325195,0,0,0.0058,-0.0029,-0.9889
1512,152800,0,121.501732,31.287064,142,-0.325195,-0.325195,0,0.0029,-0.0029,-0.9918
1513,152900,0, , , ,-0.325195,0,0,0,0,-0.9889
1514,153000,0, , , , , , ,0.0058,-0.0058,-0.9889
1515,153099,0, , , ,-0.650391,0,0,0.0029,-0.0029,-0.9918
1516,153200,0, , , ,0,0,0,0.0029,0,-0.986
1517,153300,0, , , ,0,-0.325195,0,0.0058,-0.0058,-0.9918
1518,153399,0, , , ,0,0,-0.325195,0,-0.0058,-0.9889
1519,153500,0, , , ,-0.325195,-0.325195,-0.325195,0.0058,0,-0.9918
1520,153599,0, , , ,0,0,0,0.0029,-0.0058,-0.9889
1521,153700,0, , , ,0,0,0,0,-0.0058,-0.9918
1522,153799,0,121.501732,31.28706,142,-0.325195,0,0,0.0029,-0.0029,-0.9918
1523,153900,0, , , ,-0.325195,0,0,0.0029,-0.0029,-0.9889
1524,154000,0, , , ,-0.325195,0,-0.325195,0.0029,-0.0058,-0.9918
1525,154100,0, , , , , , ,0,-0.0029,-0.9889
1526,154199,0, , , ,-0.650391,0,0,0.0058,-0.0029,-0.9918
1527,154300,0, , , ,0,0,0,0.0029,-0.0058,-0.9889
1528,154399,0, , , ,-0.325195,-0.325195,0,0.0029,-0.0029,-0.9889
1529,154500,0, , , ,-0.325195,0,0,0.0029,-0.0029,-0.9918
1530,154599,0, , , ,-0.325195,0,-0.325195,0.0029,-0.0058,-0.9889
1531,154700,0, , , ,-0.325195,0,-0.325195,0.0029,-0.0029,-0.9918
1532,154799,0,121.501732,31.287054,142,0.325195,0,0,0.0058,-0.0029,-0.9889
1533,154900,0, , , ,-0.325195,0,0,0,-0.0029,-0.9918
1534,155000,0, , , ,-0.325195,0,-0.325195, , , 
1535,155100,0, , , ,-0.325195,0,-0.325195,0.0029,-0.0029,-0.9889
1536,155200,0, , , , , , ,0.0029,-0.0029,-0.9889
1537,155299,0, , , ,-0.650391,0,0,0.0029,-0.0058,-0.9889
1538,155400,0, , , ,0,0,0,0.0029,-0.0058,-0.9889
1539,155499,0, , , ,0,0,-0.325195,0.0029,0,-0.9918
1540,155600,0, , , ,0,0,-0.325195,0.0029,-0.0058,-0.9889
1541,155699,0, , , ,-0.325195,0,0,0.0029,-0.0058,-0.9918
1542,155800,0,121.501717,31.287046,142,-0.325195,0,0,0,-0.0029,-0.9889
1543,155899,0, , , ,-0.325195,0,-0.325195,0.0029,-0.0029,-0.9889
1544,156000,0, , , ,0,0,0,0.0029,-0.0058,-0.9918
1545,156100,0, , , ,-0.325195,0,-0.325195,0.0029,-0.0029,-0.9889
1546,156200,0, , , ,0,-0.325195,-0.325195,0.0029,-0.0029,-0.9918
1547,156300,0, , , , , , ,0.0029,0,-0.9889
1548,156399,0, , , ,-0.650391,0,-0.325195,0.0029,-0.0058,-0.9889
1549,156500,0, , , ,-0.325195,0,0,0.0029,-0.0029,-0.9889
1550,156599,0, , , ,-0.325195,0,-0.325195,0.0029,-0.0029,-0.9889
1551,156700,0, , , ,-0.325195,0,-0.325195,0.0029,-0.0029,-0.9918
1552,156799,0,121.501717,31.287033,142,-0.325195,-0.325195,-0.325195,0.0029,-0.0029,-0.986
1553,156900,0, , , ,-0.650391,0,-0.650391,0.0029,-0.0116,-0.9918
1554,156999,0, , , ,-0.325195,0,0,0.0029,-0.0029,-0.9889
1555,157100,0, , , ,0.650391,-0.325195,-0.325195,0.0029,0.0058,-0.9889
1556,157200,0, , , ,-0.325195,0,0,0.0058,-0.0116,-0.9918
1557,157300,0, , , , , , ,0,-0.0058,-0.9889
1558,157399,0, , , ,-0.650391,0,-0.325195,0.0029,0.0029,-0.9918
1559,157500,0, , , ,0,0,-0.325195,0.0029,-0.0087,-0.9889
1560,157599,0, , , ,0,0,0,0.0029,-0.0087,-0.9918
1561,157700,0, , , ,-0.325195,0,0,0.0029,0,-0.9918
1562,157799,0,121.501717,31.287014,142,-0.325195,0,-0.325195,0.0029,-0.0058,-0.9889
1563,157900,0, , , ,-0.325195,0,-0.325195,0.0029,-0.0058,-0.9918
1564,157999,0, , , ,-0.325195,0,-0.325195,0.0029,0,-0.9918
1565,158100,0, , , ,-0.650391,-0.325195,0,0.0029,-0.0029,-0.9889
1566,158200,0, , , ,-0.325195,0,-0.650391,0.0029,-0.0058,-0.9918
1567,158300,0, , , , , , ,0.0029,0,-0.9889
1568,158399,0, , , ,0.325195,-0.325195,-0.325195,0.0029,0,-0.9918
1569,158500,0, , , ,0,0,-0.325195,0.0029,-0.0058,-0.9918
1570,158599,0, , , ,-0.325195,0,0,0.0029,-0.0058,-0.9889
1571,158700,0, , , ,-0.325195,0,-0.325195,0.0029,-0.0029,-0.9889
1572,158799,0,121.501732,31.286993,142,0.325195,0,-0.325195,0.0029,-0.0029,-0.9918
1573,158900,0, , , ,-0.325195,-0.325195,-0.650391,0,-0.0058,-0.9889
1574,158999,0, , , ,-0.325195,0,-0.325195,0.0058,-0.0029,-0.9918
1575,159100,0, , , ,-0.650391,0,-0.325195,0,0,-0.9889
1576,159200,0, , , ,-0.650391,0,-0.325195,0,-0.0029,-0.9889
1577,159300,0, , , , , , ,0.0058,-0.0029,-0.9918
1578,159399,0, , , ,-0.325195,-0.325195,-0.650391,0,0.0058,-0.9889
1579,159500,0, , , ,0,0,-0.325195,0,0,-0.9947
1580,159599,0, , , ,-0.325195,0,0,0.0058,-0.0058,-0.9889
1581,159700,0, , , ,0,0,0,0.0029,-0.0029,-0.9918
1582,159799,0,121.501747,31.286966,142,-0.325195,-0.325195,-0.325195,0.0029,-0.0029,-0.9918
1583,159900,0, , , ,-0.325195,-0.325195,-0.325195,0.0058,-0.0029,-0.9889
1584,159999,0, , , ,-0.325195,0,-0.325195,0,-0.0029,-0.9918
1585,160100,0, , , ,-0.650391,0,0,0,-0.0029,-0.9889
1586,160200,0, , , ,0,0,0,0.0058,-0.0029,-0.9889
1587,160300,0, , , , , , ,0.0029,-0.0029,-0.9918
1588,160399,0, , , ,-0.325195,0,-0.325195,0.0029,0,-0.9918
1589,160500,0, , , ,-0.325195,0,-0.325195,0.0029,-0.0029,-0.9918
1590,160599,0, , , ,-0.325195,-0.325195,0,0.0029,-0.0058,-0.9889
1591,160700,0, , , ,-0.325195,0,0,0.0029,-0.0029,-0.9889
1592,160799,0,121.501747,31.286949,142,0,0,0,0.0029,-0.0029,-0.9889
1593,160900,0, , , ,-0.325195,-0.325195,-0.325195,0.0058,-0.0058,-0.9889
1594,160999,0, , , ,0,0,-0.650391,0.0174,-0.0029,-0.9947
1595,161100,0, , , ,-0.325195,0,0,0.0609,0,-0.9947
1596,161200,0, , , ,-0.325195,0,-0.325195,0.0551,-0.0029,-0.986
1597,161300,0, , , ,0,0.325195,0.325195,0.0464,0,-0.9889
1598,161400,0, , , , , , ,0.0406,-0.0058,-0.9918
1599,161499,0, , , ,-0.325195,0,-0.325195,0.0377,-0.0058,-0.9947
1600,161600,0, , , ,-0.325195,0,-0.325195,0.0377,-0.0029,-0.9918
1601,161699,0, , , ,-0.650391,-0.325195,-0.325195,0.0261,-0.0058,-0.9947
1602,161800,0,121.501747,31.286953,142,-0.325195,0,-0.325195,0.0319,0,-0.9918
1603,161899,0, , , ,0,0,0,0.0406,0.0029,-0.9831
1604,162000,0, , , ,-0.325195,-0.325195,0,0.0377,-0.0029,-0.9889
1605,162099,0, , , ,-0.650391,0,0,0.0406,0,-0.9947
1606,162200,0, , , ,-0.650391,0,0.325195,0.0522,0.0058,-0.986
1607,162300,0, , , ,0,-0.325195,0.650391,0.0377,0,-0.9889
1608,162400,0, , , , , , ,0.0377,0.0029,-0.9918
1609,162499,0, , , ,-0.975586,0,0.975586,0.0348,0,-0.9918
1610,162600,0.234375, , , ,-0.650391,0,0.650391,0.029,0.0058,-0.9918
1611,162699,0.199653, , , ,0,0,1.300781,0.0203,0.0116,-0.9889
1612,162800,0.269097,121.501762,31.286947,142,0,0,1.625977,0.0348,0.0145,-0.986
1613,162899,0.225694, , , ,-0.325195,0,1.951172,0.0348,0.0174,-0.986
1614,163000,0.638021, , , ,0,-0.325195,2.276367,0.0348,0.0058,-0.9918
1615,163099,0.672743, , , ,-0.325195,-0.325195,1.951172,0.0261,0,-0.9947
1616,163200,0.746528, , , ,-0.325195,0,2.926758,0.0174,0.0058,-0.986
1617,163300,0.716146, , , ,-0.975586,0,3.251953,0.0203,0.0145,-0.9889
1618,163400,0.742188, , , , , , ,0.0319,0.029,-0.9831
1619,163499,0.833333, , , ,-0.325195,-0.650391,3.902344,0.0261,0.0348,-0.986
1620,163600,0.863715, , , ,0.650391,-0.650391,4.552734,0.0116,0.029,-0.9976
1621,163699,0.885417, , , ,0.325195,0,4.87793,0.0029,0.0174,-1.0034
1622,163800,0.915799,121.501762,31.286947,142,0,0,4.87793,0.0029,-0.0116,-0.9976
1623,163899,0.928819, , , ,-0.650391,0,5.52832,0.0116,0.0029,-0.986
1624,164000,0.9375, , , ,-0.975586,0,5.853516,0.0058,0.0261,-0.9918
1625,164099,0.959201, , , ,-0.650391,0,6.503906,0,0.0348,-0.9889
1626,164200,0.972222, , , ,-0.325195,0,6.829102,0.0058,0.029,-0.986
1627,164300,0.985243, , , ,0.325195,0,6.829102,0.0145,0.0232,-0.9947
1628,164400,1.011285, , , , , , ,0.0203,0.0116,-0.9918
1629,164500,0.946181, , , ,0.650391,0,7.154297,0.0116,0.0058,-0.9918
1630,164600,1.041667, , , ,-0.650391,0,7.804688,0.0174,0.0087,-0.9976
1631,164699,1.072049, , , ,-0.650391,0,8.129883,0.0203,0.0232,-0.9947
1632,164800,1.09375,121.501762,31.286974,142,-0.650391,0,8.455078,0.0145,0.029,-0.9889
1633,164900,1.119792, , , ,-0.650391,0,9.105469,0.0087,0.0377,-0.9889
1634,164999,1.137153, , , ,-0.325195,0,9.430664,0.0087,0.0319,-0.9918
1635,165100,1.158854, , , ,0,0,9.430664,0.0145,0.0174,-0.9918
1636,165199,1.176215, , , ,-0.975586,0,10.081055,0.0174,0.0174,-0.9918
1637,165300,1.202257, , , ,-0.650391,0.325195,10.731445,0.0232,0.0464,-0.9918
1638,165400,1.236979, , , ,-0.325195,0,11.056641,0.0261,0.0551,-0.9918
1639,165500,1.271701, , , , , , ,0.0348,0.0435,-0.9889
1640,165599,1.323785, , , ,-0.650391,0,13.007813,0.0493,0.0493,-0.9802
1641,165700,1.384549, , , ,0,0.325195,13.333008,0.058,0.0493,-0.9918
1642,165801,1.453993,121.501762,31.286989,142,-0.650391,0.325195,14.63379,0.0522,0.0551,-1.0005
1643,165900,1.523438, , , ,-0.650391,0.975586,14.63379,0.0522,0.0609,-0.9918
1644,165999,1.597222, , , ,0,0,15.284179,0.058,0.0725,-0.9918
1645,166100,1.640625, , , ,0,0,15.93457,0.0377,0.058,-0.986
1646,166199,1.688368, , , ,0,-0.325195,16.259766,0.0232,0.0406,-0.986
1647,166300,1.740451, , , ,-0.975586,0,16.259766,0.0145,0.0464,-0.9889
1648,166400,1.770833, , , ,-0.325195,0,16.584961,0.0087,0.0725,-0.9889
1649,166500,1.801215, , , , , , ,-0.0058,0.0638,-0.9802
1650,166599,1.809896, , , ,-0.325195,0,16.910156,0.0029,0.0406,-0.9947
1651,166700,1.814236, , , ,0,-0.325195,17.235352,0.0029,0.0145,-0.9947
1652,166799,1.805556,121.501816,31.286961,142,-0.650391,0,16.259766,0,0.0319,-0.9976
1653,166900,1.792535, , , ,0.325195,0,15.284179,0,0.029,-0.9947
1654,166999,1.792535, , , ,-0.325195,0,15.284179,0.0058,0.0174,-0.986
1655,167100,1.788195, , , ,-0.325195,0,14.63379,0.0116,0.0203,-0.9889
1656,167199,1.783854, , , ,0,0,13.983398,0.0203,0.0348,-0.9918
1657,167300,1.801215, , , ,-0.325195,0,13.983398,0.0261,0.0319,-0.9831
1658,167400,1.827257, , , ,-0.325195,0,13.983398,0.029,0.0435,-0.9889
1659,167500,1.844618, , , , , , ,0.0261,0.0319,-1.0005
1660,167599,1.87066, , , ,-1.300781,0,14.308594,0.0319,0.0348,-0.9831
1661,167700,1.922743, , , ,-0.975586,0,13.983398,0.0435,0.0435,-0.9831
1662,167799,1.953125,121.501816,31.286987,142,-0.325195,0,13.658203,0.0377,0.0493,-0.9976
1663,167900,1.983507, , , ,0,0,13.333008,0.0406,0.0261,-0.9976
1664,167999,2.013889, , , ,-0.650391,0,11.707031,0.0522,0.0087,-0.9889
1665,168100,2.048611, , , ,-0.325195,0,11.707031,0.0493,0.0116,-0.9918
1666,168199,2.083333, , , ,0,-0.325195,11.056641,0.0406,0.0203,-0.9947
1667,168300,2.122396, , , ,-0.325195,0,11.056641,0.0435,0.0145,-0.9889
1668,168400,2.148438, , , ,0,0,10.081055,0.0435,0.0203,-0.9802
1669,168500,2.1875, , , , , , ,0.0435,-0.0029,-0.9889
1670,168599,2.226563, , , ,0,0,8.780273,0.0464,-0.0058,-1.0034
1671,168700,2.269965, , , ,0,0,7.479492,0.058,0.0145,-0.9918
1672,168799,2.296007,121.501854,31.28698,142,-0.325195,0,7.154297,0.058,0.0261,-0.9802
1673,168900,2.33941, , , ,-0.325195,0,6.503906,0.0522,0.0232,-0.986
1674,168999,2.387153, , , ,-1.300781,0,7.154297,0.0493,0.0116,-0.9947
1675,169100,2.430556, , , ,-0.975586,0,6.503906,0.0406,0.0435,-0.9889
1676,169199,2.486979, , , ,-0.325195,-0.325195,7.479492,0.0406,0.0493,-0.986
1677,169300,2.513021, , , ,-0.650391,-0.325195,7.804688,0.0464,0.0551,-0.986
1678,169400,2.556424, , , ,-0.650391,-0.325195,8.129883,0.0174,0.0464,-1.0092
1679,169500,2.586806, , , , , , ,0.0029,0.058,-1.0005
1680,169599,2.595486, , , ,0,0,8.780273,0,0.0551,-0.9802
1681,169700,2.599827, , , ,0,0,8.780273,-0.0029,0.0493,-0.9918
1682,169799,2.599827,121.501869,31.286983,142,0.650391,0,8.780273,-0.0058,0.0493,-0.9947
1683,169900,2.586806, , , ,-0.325195,0,9.105469,0,0.0464,-0.9831
1684,169999,2.591146, , , ,-0.650391,0,9.430664,0,0.0348,-0.986
1685,170100,2.586806, , , ,-0.325195,0,9.430664,0.0029,0.0464,-0.9773
1686,170199,2.586806, , , ,0,0,9.105469,-0.0116,0.0551,-1.0034
1687,170300,2.569445, , , ,-0.325195,0,9.105469,-0.0058,0.0319,-1.0005
1688,170400,2.565104, , , ,-0.650391,0,8.780273,0,0.0348,-0.986
1689,170500,2.560764, , , , , , ,-0.0058,0.0406,-1.0005
1690,170599,2.547743, , , ,0,0,8.455078,-0.0029,0.029,-0.9889
1691,170700,2.539063, , , ,0.325195,0,8.455078,0,0.0319,-0.9831
1692,170799,2.526042,121.501869,31.28702,142,0,-0.325195,7.479492,0,0.0058,-0.9918
1693,170900,2.517361, , , ,0,0,6.829102,-0.0029,0.0203,-0.9947
1694,170999,2.526042, , , ,0.325195,0,5.52832,0.0029,-0.0116,-0.9889
1695,171100,2.508681, , , ,0.325195,0,3.902344,0.0029,-0.0609,-0.986
1696,171199,2.49132, , , ,0.975586,-0.325195,2.276367,0.0029,-0.0493,-0.986
1697,171300,2.465278, , , ,-0.650391,0,0.975586,-0.0174,-0.0319,-0.986
1698,171400,2.439236, , , ,-0.975586,0,1.300781,-0.0232,-0.0174,-0.986
1699,171500,2.400174, , , , , , ,-0.0377,-0.0087,-0.9918
1700,171599,2.361111, , , ,0.325195,-0.325195,-0.650391,-0.0435,-0.0406,-0.9976
1701,171700,2.313368, , , ,0,0,-1.300781,-0.0609,-0.0435,-1.0034
1702,171800,2.269965,121.501869,31.287027,142,-0.325195,0,-1.625977,-0.0522,-0.029,-0.9889
1703,171900,2.204861, , , ,0.325195,0,-1.625977,-0.0348,-0.0319,-0.9889
1704,172000,2.157118, , , ,-0.975586,0,-2.276367,-0.0174,-0.029,-0.9947
1705,172100,2.122396, , , ,-0.975586,0,-2.276367,-0.0348,-0.0029,-0.9947
1706,172200,2.096354, , , ,-0.650391,-0.325195,-1.951172,-0.0145,0,-0.9831
1707,172300,2.065972, , , ,-0.650391,0,-1.300781,-0.0116,-0.0145,-0.9889
1708,172400,2.052952, , , ,-0.975586,0,-1.625977,-0.0029,-0.0145,-0.9947
1709,172500,2.03125, , , , , , ,-0.0029,-0.0145,-0.9889
1710,172600,2.03125, , , ,-0.650391,0.325195,-1.300781,-0.0058,0.0145,-0.9889
1711,172700,2.02257, , , ,0,0,-1.300781,-0.0029,0.0203,-0.9947
1712,172801,2.013889,121.501907,31.287094,142,0.650391,0,-1.300781,0,-0.0116,-0.9918
1713,172900,2.005208, , , ,0,0,-1.300781,0.0116,-0.0406,-0.9744
1714,172999,1.983507, , , ,-0.650391,-0.650391,-1.951172,0.0087,-0.0348,-0.9889
1715,173100,1.979167, , , ,-0.650391,-0.650391,-1.951172,-0.0029,-0.0116,-0.9976
1716,173199,1.970486, , , ,-0.325195,0,-1.951172,-0.0029,0,-0.9947
1717,173300,1.974826, , , ,0,0,-1.625977,0,-0.0145,-0.9947
1718,173400,1.966146, , , ,-0.650391,-0.325195,-1.625977,0,-0.0232,-0.9889
1719,173500,1.948785, , , , , , ,0.0058,-0.0145,-0.9802
1720,173599,1.944445, , , ,-0.975586,-0.325195,-1.300781,0,0.0116,-0.986
1721,173700,1.940104, , , ,-0.325195,-0.325195,-0.650391,-0.0058,0.0232,-1.0034
1722,173799,1.944445,121.501923,31.287117,142,-0.650391,-0.325195,0,-0.0058,0.0058,-0.9947
1723,173900,1.927083, , , ,-0.650391,0,0.325195,-0.0087,0.0058,-0.9976
1724,173999,1.909722, , , ,-0.650391,0,0.650391,-0.0116,0.0435,-0.9976
1725,174100,1.896701, , , ,0.325195,0,1.625977,-0.0145,0.0464,-0.9947
1726,174199,1.883681, , , ,0,0,2.601563,-0.029,0.0203,-0.9831
1727,174300,1.86632, , , ,0,0.650391,2.926758,-0.0087,0.0029,-0.986
1728,174400,1.86632, , , ,-1.300781,0.325195,3.902344,0.0087,0.0116,-0.9918
1729,174500,1.193576, , , , , , ,-0.0058,0.0435,-0.986
1730,174600,1.853299, , , ,-1.300781,0,5.853516,-0.0087,0.0812,-0.9947
1731,174700,1.848958, , , ,0,0,7.479492,-0.0203,0.0928,-0.9976
1732,174799,1.09809,121.501923,31.287113,142,0.975586,0,8.455078,-0.0116,0.0464,-0.9889
1733,174900,1.831597, , , ,0.650391,0.325195,7.804688,0,-0.0029,-0.986
1734,174999,1.814236, , , ,-0.975586,0.325195,8.129883,-0.0029,0,-0.9918
1735,175100,1.805556, , , ,-1.625977,0,9.755859,0,0.0696,-0.9889
1736,175199,1.796875, , , ,-1.300781,0,11.381836,-0.0232,0.1102,-0.9889
1737,175300,1.788195, , , ,0,0,11.056641,-0.0203,0.0928,-0.9889
1738,175400,1.792535, , , ,0.650391,0,12.682617,-0.0058,0.0464,-0.9889
1739,175500,1.788195, , , , , , ,-0.0116,0.0174,-0.9976
1740,175599,1.770833, , , ,-1.625977,0,13.007813,-0.0319,0.058,-1.0005
1741,175700,1.783854, , , ,-1.300781,0,15.284179,-0.0377,0.116,-0.9947
1742,175799,1.783854,121.501961,31.287073,142,0.325195,0,16.259766,-0.029,0.1015,-0.9773
1743,175900,1.801215, , , ,0.650391,0,16.259766,0,0.0377,-0.9918
1744,175999,1.805556, , , ,0.325195,0,16.910156,0.0116,0.0232,-0.9976
1745,176100,1.818576, , , ,-0.975586,0,17.885742,-0.0116,0.0609,-0.9947
1746,176199,1.835938, , , ,-0.650391,-0.325195,17.235352,-0.0319,0.0957,-0.9918
1747,176300,1.844618, , , ,0,0,19.836914,-0.029,0.0841,-0.9773
1748,176400,1.840278, , , ,-0.650391,-0.325195,19.836914,-0.0261,0.0464,-0.9918
1749,176500,1.831597, , , , , , ,-0.029,0.0551,-0.9831
1750,176599,1.844618, , , ,-0.650391,0,20.487305,-0.0261,0.0783,-0.9918
1751,176700,1.853299, , , ,0.325195,0,19.836914,-0.0261,0.0551,-1.0034
1752,176799,1.831597,121.501976,31.287054,142,0.325195,0,20.162109,-0.0174,0.0348,-0.9831
1753,176900,1.840278, , , ,-0.650391,-0.325195,20.162109,-0.0232,0.0435,-0.9831
1754,176999,1.848958, , , ,-0.325195,0,18.210938,-0.0058,0.0667,-0.9976
1755,177100,1.875, , , ,-0.650391,0,20.8125,0.0058,0.0667,-1.0005
1756,177199,1.914063, , , ,-1.625977,0,21.462891,0.0203,0.0783,-0.9889
1757,177300,1.957465, , , ,-0.325195,-0.325195,19.511719,0.0319,0.0957,-0.986
1758,177400,2.005208, , , ,-0.325195,0,22.113281,0.0261,0.087,-0.9918
1759,177500,2.078993, , , , , , ,0.0348,0.0841,-0.9889
1760,177599,2.165799, , , ,0,0.325195,22.763672,0.0522,0.087,-0.9976
1761,177700,2.222222, , , ,0.650391,0.650391,22.113281,0.0696,0.0609,-0.9947
1762,177799,2.287327,121.501961,31.287041,142,0.325195,0.650391,21.462891,0.0725,0.0319,-0.9947
1763,177900,2.356771, , , ,-0.975586,0.325195,20.8125,0.0725,0.0522,-0.9947
1764,177999,2.426215, , , ,-1.625977,0.325195,20.162109,0.0696,0.058,-0.9889
1765,178100,2.482639, , , ,-0.650391,0.325195,18.536133,0.0725,0.0783,-0.986
1766,178199,2.534722, , , ,-0.325195,0,18.536133,0.0725,0.0609,-0.9715
1767,178300,2.617188, , , ,-0.325195,0.650391,17.885742,0.0638,0.0609,-1.0005
1768,178400,2.677952, , , ,-0.650391,0.325195,17.560547,0.058,0.0667,-1.0034
1769,178500,2.725695, , , , , , ,0.058,0.0667,-0.9918
1770,178600,2.786458, , , ,0.650391,0.650391,15.609375,0.0638,0.0522,-0.9773
1771,178700,2.838542, , , ,0,0.325195,14.958983,0.0696,0.0377,-0.9831
1772,178799,2.886285,121.501961,31.287043,141,-0.975586,0.325195,12.357422,0.0783,0.029,-0.9947
1773,178900,2.955729, , , ,-0.650391,0,12.357422,0.0986,0.0406,-0.9976
1774,178999,3.033854, , , ,0.325195,0.650391,11.056641,0.1276,0.0551,-0.9947
1775,179100,3.133681, , , ,0.325195,0,10.081055,0.1508,-0.0058,-0.957
1776,179199,3.237847, , , ,-1.951172,-1.300781,8.780273,0.1334,-0.029,-0.9686
1777,179300,3.333333, , , ,0,-0.975586,6.503906,0.1015,0.0087,-1.0353
1778,179400,3.42882, , , ,-0.975586,0,5.52832,0.0957,0.0087,-0.9976
1779,179500,3.498264, , , , , , ,0.1102,0.0029,-0.9773
1780,179599,3.611111, , , ,0.325195,-0.325195,2.601563,0.0986,0,-0.9657
1781,179700,3.663195, , , ,0,-0.325195,1.951172,0.0667,-0.0319,-1.015
1782,179799,3.758681,121.501961,31.287001,141,-0.325195,0,0.975586,0.0841,-0.0464,-0.986
1783,179900,3.823785, , , ,-1.300781,0.975586,0.325195,0.0754,-0.0232,-0.9338
1784,179999,3.919271, , , ,-0.650391,-0.650391,0,0.1305,0.0029,-0.9976
1785,180100,3.988715, , , ,-0.650391,-0.975586,-0.650391,0.0812,0,-1.0237
1786,180199,4.0625, , , ,-1.300781,-0.325195,0,0.0638,-0.0348,-1.0266
1787,180300,4.144966, , , ,-0.325195,0.325195,-0.325195,0.0725,0.0348,-0.9628
1788,180400,4.231771, , , ,0,-0.325195,-0.325195,0.0812,-0.0058,-0.9744
1789,180500,4.275174, , , , , , ,0.0667,0.0116,-0.9889
1790,180599,4.344618, , , ,0.650391,0.325195,-0.325195,0.0493,0.0145,-0.957
1791,180700,4.440104, , , ,-0.325195,0.650391,0,0.0638,-0.058,-1.0266
1792,180799,4.479167,121.501923,31.287006,141,-1.951172,0,-0.325195,0.0812,-0.0319,-1.0237
1793,180900,4.52257, , , ,-0.975586,-0.650391,-0.975586,0.0696,0.0406,-0.9599
1794,180999,4.578993, , , ,0,-1.300781,-0.650391,0.0493,0.0232,-0.9628
1795,181100,4.618056, , , ,-0.650391,0,0,0.0348,-0.0261,-1.0179
1796,181199,4.670139, , , ,-0.325195,0.325195,-0.650391,0.0261,0.0029,-1.0034
1797,181300,4.726563, , , ,-0.650391,0,-0.975586,0.0638,-0.0174,-0.9976
1798,181400,4.769966, , , ,0,-0.325195,-0.325195,0.0406,0.0174,-0.986
1799,181500,4.809028, , , , , , ,0.0348,-0.029,-0.9686
1800,181599,4.83941, , , ,-0.650391,0.325195,-1.300781,0.0348,-0.0377,-0.9947
1801,181700,4.865452, , , ,-0.975586,0.325195,-1.300781,0.0377,-0.0058,-1.0266
1802,181800,4.900174,121.501945,31.28694,141,-0.650391,0,-1.300781,0.0377,0.0145,-0.9947
1803,181899,4.926216, , , ,0.650391,-0.325195,-1.300781,0.0406,0,-0.9657
1804,182000,4.947917, , , ,-0.325195,-0.325195,-0.650391,0.0232,-0.0145,-0.986
1805,182099,4.969618, , , ,-1.300781,0,-0.325195,0.0174,-0.0261,-0.9744
1806,182200,4.99132, , , ,-0.325195,-0.325195,-0.650391,0,0.0377,-1.0266
1807,182299,4.99566, , , ,0.325195,-0.325195,-0.975586,-0.0116,-0.0087,-1.015
1808,182400,4.978299, , , ,0,0,-0.325195,-0.0145,-0.0145,-0.9657
1809,182500,4.969618, , , ,0,0,-0.975586,0,-0.0203,-0.9686
1810,182600,4.960938, , , , , , ,-0.0232,0.0203,-0.986
1811,182699,4.926216, , , ,0,0,-0.975586,-0.0435,0.0029,-1.0208
1812,182800,4.900174,121.501945,31.286926,141,0,0,-0.325195,-0.0174,-0.0058,-0.9976
1813,182899,4.865452, , , ,0,-0.650391,-0.325195,-0.0116,-0.0174,-0.9715
1814,183000,4.826389, , , ,-0.650391,-0.975586,-0.650391,-0.0377,-0.0029,-0.9628
1815,183099,4.804688, , , ,-1.300781,0,-0.975586,-0.0493,-0.0232,-1.0324
1816,183200,4.791667, , , ,0,0,-0.650391,-0.0145,0.0203,-0.986
1817,183299,4.756945, , , ,0,-0.325195,-0.650391,0,0.0116,-0.9599
1818,183400,4.709202, , , ,1.300781,-0.975586,-0.650391,-0.0377,0,-0.9947
1819,183500,4.696181, , , ,0,0,-0.650391,-0.0377,-0.0435,-0.9976
1820,183600,4.674479, , , , , , ,-0.0145,-0.0087,-0.9831
1821,183699,4.652778, , , ,0,-0.650391,-1.300781,-0.0116,0.0058,-1.0121
1822,183800,4.609375,121.50193,31.286894,141,-0.650391,0,-0.975586,-0.0232,0,-0.9918
1823,183899,4.605035, , , ,0,0.325195,-1.300781,-0.0087,-0.0261,-0.9715
1824,184000,4.600695, , , ,-0.650391,0.325195,-1.625977,0.0174,-0.0232,-1.0005
1825,184099,4.600695, , , ,0,0.325195,-1.300781,0.0145,-0.0319,-1.0063
1826,184200,4.618056, , , ,-0.325195,0,-1.951172,0.0145,-0.0029,-0.9657
1827,184299,4.622396, , , ,0,0,-2.276367,0.0377,-0.0087,-1.0005
1828,184400,4.644097, , , ,0,-0.325195,-1.625977,0.0145,-0.0348,-0.9889
1829,184500,4.639757, , , ,-1.951172,-0.325195,-1.300781,0.0203,-0.0174,-0.986
1830,184600,4.657118, , , , , , ,0.0203,0.0406,-0.9947
1831,184700,4.67882, , , ,-0.650391,0,-0.325195,0.0058,0.0493,-1.0179
1832,184800,4.704861,121.501923,31.286827,141,0.325195,0,0,0.029,0.0145,-0.9715
1833,184899,4.717882, , , ,-0.325195,-0.325195,0,0.0261,-0.0058,-0.9773
1834,185000,4.752604, , , ,-0.650391,0.325195,0.650391,0.029,0.0058,-0.9918
1835,185099,4.774306, , , ,-1.300781,0.325195,1.300781,0.0348,0.0406,-0.9918
1836,185200,4.817708, , , ,-0.325195,0,1.300781,0.0464,0.0232,-0.9918
1837,185299,4.822049, , , ,0,-0.325195,1.300781,0.0348,0.0464,-1.0092
1838,185400,4.869792, , , ,-0.325195,0,1.625977,0.0435,0.0029,-0.9715
1839,185500,4.913195, , , ,0,-0.325195,1.300781,0.058,0.0232,-0.9831
1840,185600,4.952257, , , , , , ,0.0435,-0.0029,-1.0005
1841,185699,4.99132, , , ,0,-0.325195,0.650391,0.0464,0.0087,-0.9773
1842,185800,5.017361,121.501923,31.286753,141,-0.975586,0,0.325195,0.0464,-0.0261,-1.0092
1843,185899,5.082466, , , ,-0.650391,-0.325195,0,0.0464,0.0116,-0.9889
1844,186000,5.108507, , , ,-0.325195,0,0,0.0464,0.0174,-0.9802
1845,186099,5.164931, , , ,-0.325195,0,0,0.0493,0.0029,-1.0005
1846,186200,5.212674, , , ,-0.325195,0,0,0.0522,0.0029,-0.9831
1847,186299,5.260417, , , ,0,0,0.325195,0.0551,0.0174,-0.9947
1848,186400,5.30382, , , ,0,0,0,0.0406,0,-1.0034
1849,186500,5.342882, , , ,0,0,0.325195,0.0493,0.0058,-0.9889
1850,186600,5.377604, , , , , , ,0.058,-0.0058,-0.9831
1851,186699,5.438368, , , ,0,-0.650391,0,0.0435,0.0058,-0.9918
1852,186800,5.455729,121.501923,31.286694,141,-0.650391,0,-0.325195,0.0377,0,-1.0063
1853,186899,5.512153, , , ,0.325195,0,0,0.0522,-0.0087,-0.9889
1854,187000,5.542535, , , ,-0.325195,-0.325195,-0.325195,0.0464,0.0058,-0.9889
1855,187099,5.590278, , , ,0.325195,0,-0.325195,0.0261,-0.0116,-0.9947
1856,187200,5.625, , , ,-0.650391,0,-0.325195,0.0435,-0.0174,-0.9715
1857,187299,5.625, , , ,-0.325195,-0.975586,-0.650391,0.0319,-0.0058,-0.9773
1858,187400,5.642361, , , ,-0.325195,-0.975586,-0.325195,-0.0058,-0.0087,-0.9947
1859,187500,5.638021, , , ,-0.325195,-0.650391,-0.650391,-0.0174,-0.0145,-1.0063
1860,187600,5.61632, , , , , , ,-0.0174,-0.0029,-0.9947
1861,187699,5.598958, , , ,-0.325195,-0.325195,-0.650391,-0.0116,-0.0058,-0.9657
1862,187800,5.603299,121.501923,31.286613,140,-0.325195,-0.325195,-0.650391,-0.0232,-0.0145,-0.9715
1863,187899,5.577257, , , ,-0.975586,-0.325195,-0.325195,-0.0261,-0.0145,-1.0092
1864,188000,5.546875, , , ,-0.975586,0,-0.650391,-0.029,-0.0116,-1.015
1865,188099,5.525174, , , ,0,-0.325195,-0.650391,-0.0174,0.029,-0.9657
1866,188200,5.473091, , , ,0,-0.325195,-0.650391,-0.0377,-0.0261,-0.986
1867,188299,5.451389, , , ,-0.975586,0,-0.325195,-0.0377,-0.029,-0.9918
1868,188400,5.407986, , , ,-1.625977,0,-0.650391,-0.0319,-0.0203,-1.0237
1869,188500,5.403646, , , ,0,-0.325195,-0.650391,-0.0174,0.0232,-0.9889
1870,188600,5.351563, , , , , , ,-0.0377,-0.0029,-0.9657
1871,188699,5.321181, , , ,0,0.325195,-0.650391,-0.0203,-0.029,-0.9947
1872,188800,5.295139,121.501907,31.286556,140,-1.625977,-0.325195,-0.650391,-0.0116,-0.0116,-0.9918
1873,188899,5.269097, , , ,0,-0.325195,-0.650391,-0.0145,0.0145,-1.0179
1874,189000,5.256077, , , ,-0.325195,0,-0.650391,0.0116,0.0058,-0.986
1875,189099,5.269097, , , ,-0.325195,0.325195,-0.650391,0.0319,-0.0261,-0.9744
1876,189200,5.295139, , , ,-0.975586,-0.325195,-0.325195,0.0348,-0.0058,-0.9831
1877,189299,5.3125, , , ,-0.650391,0,-0.650391,0.0145,-0.0058,-0.9918
1878,189400,5.329861, , , ,-0.650391,0,-0.325195,0.0348,0.0087,-0.9947
1879,189500,5.329861, , , ,0,-0.650391,-0.650391,0.0319,-0.0029,-0.9773
1880,189600,5.364583, , , , , , ,0.0145,0,-1.0005
1881,189699,5.394966, , , ,0,0,-0.325195,0.0261,-0.0261,-0.9889
1882,189800,5.425347,121.501869,31.286514,140,0,0,-0.650391,0.0377,-0.0029,-0.986
1883,189899,5.442708, , , ,-0.325195,0,-0.650391,0.0319,0.0058,-1.0005
1884,190000,5.477431, , , ,0.325195,0.325195,-0.650391,0.0203,0.0058,-0.9976
1885,190099,5.525174, , , ,0,0.325195,-0.650391,0.0464,-0.0174,-0.9831
1886,190200,5.551216, , , ,-0.650391,0,-0.325195,0.0493,-0.029,-0.9715
1887,190299,5.577257, , , ,0,-0.325195,-0.650391,0.0435,0,-0.986
1888,190400,5.61632, , , ,-0.650391,-0.650391,-0.325195,0.0319,-0.0029,-0.9976
1889,190500,5.62066, , , ,0,-0.650391,-0.975586,0.0203,-0.0087,-1.0092
1890,190600,5.629341, , , , , , ,0.0116,-0.0087,-0.9831
1891,190699,5.651042, , , ,0,-0.325195,-0.325195,-0.0029,-0.0116,-0.9831
1892,190800,5.655382,121.501854,31.286467,140,-0.975586,0,-0.650391,-0.0145,-0.0087,-0.9889
1893,190899,5.659722, , , ,-0.325195,0,-0.650391,0,-0.0087,-0.986
1894,191000,5.651042, , , ,-0.325195,-0.650391,-0.975586,-0.0058,0.0087,-0.9918
1895,191099,5.629341, , , ,0,0,-0.975586,-0.0232,-0.0232,-1.0034
1896,191200,5.603299, , , ,0,0,-0.325195,-0.0435,-0.0029,-0.9773
1897,191299,5.581597, , , ,-1.300781,-0.325195,-0.650391,-0.0319,-0.0261,-1.0034
1898,191400,5.551216, , , ,0,0,-0.650391,-0.0319,0.0087,-0.9831
1899,191500,5.512153, , , ,0,0,-0.975586,-0.0319,0.0174,-0.986
1900,191600,5.477431, , , , , , ,-0.029,-0.0174,-0.9918
1901,191699,5.455729, , , ,-0.650391,0,-0.325195,-0.0319,-0.0145,-1.0005
1902,191800,5.421007,121.501839,31.286444,140,-0.650391,0,-0.650391,-0.0261,-0.0261,-1.0005
1903,191899,5.394966, , , ,-0.975586,0,0,-0.0203,0,-0.9686
1904,192000,5.342882, , , ,0,0,-0.975586,-0.0145,0.0029,-1.0005
1905,192099,5.321181, , , ,0.650391,0,-0.975586,-0.0348,0.0029,-1.0034
1906,192200,5.290799, , , ,-0.325195,0,-0.325195,-0.0232,-0.029,-0.9889
